<?xml version="1.0" encoding="ISO-8859-1"?>
<?xml-stylesheet type="text/xsl" href="define2-0-0.xsl"?>
<!-- ************************************************** -->
<!-- File:  define.xml                                  -->
<!-- Date:  2013-07-12T17:11:33       -->
<!-- Author:  inVentiv Health Clinical                  -->
<!-- Project:  H9X-MC-GBCK                          -->
<!-- ************************************************** -->
<ODM
  xmlns="http://www.cdisc.org/ns/odm/v1.2"
  xmlns:xsi="http://www.w3.org/2001/XMLSchema-instance"
  xmlns:xlink="http://www.w3.org/1999/xlink"
  xmlns:def="http://www.cdisc.org/ns/def/v1.0"
  xsi:schemaLocation="http://www.cdisc.org/ns/odm/v1.2define1-0-0.xsd"
  FileOID="H9X-MC-GBCK"
  ODMVersion="1.2"
  FileType="Snapshot"
  CreationDateTime="2013-07-12T17:11:33">
<Study OID="H9X-MC-GBCK">
  <GlobalVariables>
    <StudyName>H9X-MC-GBCK</StudyName>
    <StudyDescription>The description of study H9X-MC-GBCK</StudyDescription>
    <ProtocolName>Study H9X-MC-GBCK </ProtocolName>
  </GlobalVariables>
  <MetaDataVersion OID="CDISC.SDTM.3.1.2"
    Name="CDISC SDTM Data for Study H9X-MC-GBCK"
    Description="Study H9X-MC-GBCK, Data Definitions"
    def:DefineVersion="1.0.0"
    def:StandardName="CDISC SDTM"
    def:StandardVersion="3.1.2">
  <!-- ****************************************************** -->
  <!-- Study contains a Supplemental Data Definition Document -->
  <!--                a Reviewer Guide                        -->
  <!--                or an Annotated CRF                     -->
  <!-- ****************************************************** -->
  <def:AnnotatedCRF>
    <def:DocumentRef leafID="blankcrf"/>
  </def:AnnotatedCRF>
  <def:SupplementalDoc>
    <def:DocumentRef leafID="SupplementalDataDefinitions"/>
  </def:SupplementalDoc>
  <def:SupplementalDoc>
    <def:DocumentRef leafID="ReviewersGuide"/>
  </def:SupplementalDoc>
  <def:leaf ID="blankcrf" xlink:href="blankcrf.pdf">
    <def:title>Annotated Case Report Form</def:title>
  </def:leaf>
  <def:leaf ID="SupplementalDataDefinitions" xlink:href="supplementaldatadefinitions.pdf">
    <def:title>Supplemental Data Definitions</def:title>
  </def:leaf>
  <def:leaf ID="ReviewersGuide" xlink:href="reviewersguide.pdf">
    <def:title>Reviewers Guide</def:title>
  </def:leaf>
  <!-- ******************************* -->
  <!-- Details of Value Level Metadata -->
  <!-- ******************************* -->
  <def:ValueListDef OID="DA.DATESTCD">
    <ItemRef ItemOID="DA.DATESTCD.DISPAMT" OrderNumber="1" Mandatory="No"/>
  </def:ValueListDef>
  <def:ValueListDef OID="EG.EGTESTCD">
    <ItemRef ItemOID="EG.EGTESTCD.HRMEAN" OrderNumber="1" Mandatory="No"/>
    <ItemRef ItemOID="EG.EGTESTCD.INTP" OrderNumber="2" Mandatory="No"/>
    <ItemRef ItemOID="EG.EGTESTCD.PRMEAN" OrderNumber="3" Mandatory="No"/>
    <ItemRef ItemOID="EG.EGTESTCD.QRSDUR" OrderNumber="4" Mandatory="No"/>
    <ItemRef ItemOID="EG.EGTESTCD.QTCB" OrderNumber="5" Mandatory="No"/>
    <ItemRef ItemOID="EG.EGTESTCD.QTCBPROL" OrderNumber="6" Mandatory="No"/>
    <ItemRef ItemOID="EG.EGTESTCD.QTCF" OrderNumber="7" Mandatory="No"/>
    <ItemRef ItemOID="EG.EGTESTCD.QTMEAN" OrderNumber="8" Mandatory="No"/>
    <ItemRef ItemOID="EG.EGTESTCD.RRMEAN" OrderNumber="9" Mandatory="No"/>
    <ItemRef ItemOID="EG.EGTESTCD.T70" OrderNumber="10" Mandatory="No"/>
    <ItemRef ItemOID="EG.EGTESTCD.T71" OrderNumber="11" Mandatory="No"/>
    <ItemRef ItemOID="EG.EGTESTCD.T72" OrderNumber="12" Mandatory="No"/>
    <ItemRef ItemOID="EG.EGTESTCD.T73" OrderNumber="13" Mandatory="No"/>
    <ItemRef ItemOID="EG.EGTESTCD.T75" OrderNumber="14" Mandatory="No"/>
    <ItemRef ItemOID="EG.EGTESTCD.T76" OrderNumber="15" Mandatory="No"/>
    <ItemRef ItemOID="EG.EGTESTCD.T78" OrderNumber="16" Mandatory="No"/>
    <ItemRef ItemOID="EG.EGTESTCD.T79" OrderNumber="17" Mandatory="No"/>
    <ItemRef ItemOID="EG.EGTESTCD.T80" OrderNumber="18" Mandatory="No"/>
    <ItemRef ItemOID="EG.EGTESTCD.T81" OrderNumber="19" Mandatory="No"/>
    <ItemRef ItemOID="EG.EGTESTCD.T84" OrderNumber="20" Mandatory="No"/>
    <ItemRef ItemOID="EG.EGTESTCD.T85" OrderNumber="21" Mandatory="No"/>
    <ItemRef ItemOID="EG.EGTESTCD.T86" OrderNumber="22" Mandatory="No"/>
    <ItemRef ItemOID="EG.EGTESTCD.T98" OrderNumber="23" Mandatory="No"/>
  </def:ValueListDef>
  <def:ValueListDef OID="FA.FATESTCD">
    <ItemRef ItemOID="FA.FATESTCD.AJDTHTP" OrderNumber="1" Mandatory="No"/>
    <ItemRef ItemOID="FA.FATESTCD.AJECRES2" OrderNumber="2" Mandatory="No"/>
    <ItemRef ItemOID="FA.FATESTCD.AJECRES4" OrderNumber="3" Mandatory="No"/>
    <ItemRef ItemOID="FA.FATESTCD.AJECRES5" OrderNumber="4" Mandatory="No"/>
    <ItemRef ItemOID="FA.FATESTCD.AJECRES9" OrderNumber="5" Mandatory="No"/>
    <ItemRef ItemOID="FA.FATESTCD.AJIVT" OrderNumber="6" Mandatory="No"/>
    <ItemRef ItemOID="FA.FATESTCD.AJMICRIT" OrderNumber="7" Mandatory="No"/>
    <ItemRef ItemOID="FA.FATESTCD.AJMIQWCR" OrderNumber="8" Mandatory="No"/>
    <ItemRef ItemOID="FA.FATESTCD.AJMISTCR" OrderNumber="9" Mandatory="No"/>
    <ItemRef ItemOID="FA.FATESTCD.AJPNCD2" OrderNumber="10" Mandatory="No"/>
    <ItemRef ItemOID="FA.FATESTCD.AJPNCD4" OrderNumber="11" Mandatory="No"/>
    <ItemRef ItemOID="FA.FATESTCD.AJPNCD5" OrderNumber="12" Mandatory="No"/>
    <ItemRef ItemOID="FA.FATESTCD.AJPNCRS1" OrderNumber="13" Mandatory="No"/>
    <ItemRef ItemOID="FA.FATESTCD.AJPNCRS3" OrderNumber="14" Mandatory="No"/>
    <ItemRef ItemOID="FA.FATESTCD.AJSTKSEV" OrderNumber="15" Mandatory="No"/>
    <ItemRef ItemOID="FA.FATESTCD.AJSTKTP" OrderNumber="16" Mandatory="No"/>
    <ItemRef ItemOID="FA.FATESTCD.BGCONC" OrderNumber="17" Mandatory="No"/>
    <ItemRef ItemOID="FA.FATESTCD.EPIDUR" OrderNumber="18" Mandatory="No"/>
    <ItemRef ItemOID="FA.FATESTCD.HYAW" OrderNumber="19" Mandatory="No"/>
    <ItemRef ItemOID="FA.FATESTCD.HYDOSEDT" OrderNumber="20" Mandatory="No"/>
    <ItemRef ItemOID="FA.FATESTCD.HYOCCPER" OrderNumber="21" Mandatory="No"/>
    <ItemRef ItemOID="FA.FATESTCD.HYOUT" OrderNumber="22" Mandatory="No"/>
    <ItemRef ItemOID="FA.FATESTCD.HYRN1" OrderNumber="23" Mandatory="No"/>
    <ItemRef ItemOID="FA.FATESTCD.HYRN2" OrderNumber="24" Mandatory="No"/>
    <ItemRef ItemOID="FA.FATESTCD.HYRN3" OrderNumber="25" Mandatory="No"/>
    <ItemRef ItemOID="FA.FATESTCD.HYRN4" OrderNumber="26" Mandatory="No"/>
    <ItemRef ItemOID="FA.FATESTCD.HYSEV" OrderNumber="27" Mandatory="No"/>
    <ItemRef ItemOID="FA.FATESTCD.HYTRT" OrderNumber="28" Mandatory="No"/>
    <ItemRef ItemOID="FA.FATESTCD.HYTRTFLG" OrderNumber="29" Mandatory="No"/>
    <ItemRef ItemOID="FA.FATESTCD.PNCD2" OrderNumber="30" Mandatory="No"/>
    <ItemRef ItemOID="FA.FATESTCD.PNCD4" OrderNumber="31" Mandatory="No"/>
    <ItemRef ItemOID="FA.FATESTCD.PNCRES1" OrderNumber="32" Mandatory="No"/>
    <ItemRef ItemOID="FA.FATESTCD.PNCRES3" OrderNumber="33" Mandatory="No"/>
    <ItemRef ItemOID="FA.FATESTCD.PNCRES5" OrderNumber="34" Mandatory="No"/>
    <ItemRef ItemOID="FA.FATESTCD.TRTCMPF" OrderNumber="35" Mandatory="No"/>
  </def:ValueListDef>
  <def:ValueListDef OID="LB.LBTESTCD">
    <ItemRef ItemOID="LB.LBTESTCD.ALBCREAT" OrderNumber="1" Mandatory="No"/>
    <ItemRef ItemOID="LB.LBTESTCD.ALP" OrderNumber="2" Mandatory="No"/>
    <ItemRef ItemOID="LB.LBTESTCD.ALT" OrderNumber="3" Mandatory="No"/>
    <ItemRef ItemOID="LB.LBTESTCD.AMYLASE" OrderNumber="4" Mandatory="No"/>
    <ItemRef ItemOID="LB.LBTESTCD.AMYLASEP" OrderNumber="5" Mandatory="No"/>
    <ItemRef ItemOID="LB.LBTESTCD.ANISO" OrderNumber="6" Mandatory="No"/>
    <ItemRef ItemOID="LB.LBTESTCD.AST" OrderNumber="7" Mandatory="No"/>
    <ItemRef ItemOID="LB.LBTESTCD.BACT" OrderNumber="8" Mandatory="No"/>
    <ItemRef ItemOID="LB.LBTESTCD.BASO" OrderNumber="9" Mandatory="No"/>
    <ItemRef ItemOID="LB.LBTESTCD.BILDIR" OrderNumber="10" Mandatory="No"/>
    <ItemRef ItemOID="LB.LBTESTCD.BILI" OrderNumber="11" Mandatory="No"/>
    <ItemRef ItemOID="LB.LBTESTCD.BUN" OrderNumber="12" Mandatory="No"/>
    <ItemRef ItemOID="LB.LBTESTCD.BURRCE" OrderNumber="13" Mandatory="No"/>
    <ItemRef ItemOID="LB.LBTESTCD.C14" OrderNumber="14" Mandatory="No"/>
    <ItemRef ItemOID="LB.LBTESTCD.CASTS" OrderNumber="15" Mandatory="No"/>
    <ItemRef ItemOID="LB.LBTESTCD.CHOL" OrderNumber="16" Mandatory="No"/>
    <ItemRef ItemOID="LB.LBTESTCD.CK" OrderNumber="17" Mandatory="No"/>
    <ItemRef ItemOID="LB.LBTESTCD.CKMB" OrderNumber="18" Mandatory="No"/>
    <ItemRef ItemOID="LB.LBTESTCD.CL" OrderNumber="19" Mandatory="No"/>
    <ItemRef ItemOID="LB.LBTESTCD.CREAT" OrderNumber="20" Mandatory="No"/>
    <ItemRef ItemOID="LB.LBTESTCD.CREATCLR" OrderNumber="21" Mandatory="No"/>
    <ItemRef ItemOID="LB.LBTESTCD.CRP" OrderNumber="22" Mandatory="No"/>
    <ItemRef ItemOID="LB.LBTESTCD.CSGRAN" OrderNumber="23" Mandatory="No"/>
    <ItemRef ItemOID="LB.LBTESTCD.CSHYAL" OrderNumber="24" Mandatory="No"/>
    <ItemRef ItemOID="LB.LBTESTCD.CYAMORPH" OrderNumber="25" Mandatory="No"/>
    <ItemRef ItemOID="LB.LBTESTCD.CYAMPURT" OrderNumber="26" Mandatory="No"/>
    <ItemRef ItemOID="LB.LBTESTCD.CYCAOXA" OrderNumber="27" Mandatory="No"/>
    <ItemRef ItemOID="LB.LBTESTCD.CYSTARCH" OrderNumber="28" Mandatory="No"/>
    <ItemRef ItemOID="LB.LBTESTCD.CYTRPHOS" OrderNumber="29" Mandatory="No"/>
    <ItemRef ItemOID="LB.LBTESTCD.CYURIAC" OrderNumber="30" Mandatory="No"/>
    <ItemRef ItemOID="LB.LBTESTCD.D58" OrderNumber="31" Mandatory="No"/>
    <ItemRef ItemOID="LB.LBTESTCD.D77" OrderNumber="32" Mandatory="No"/>
    <ItemRef ItemOID="LB.LBTESTCD.D95" OrderNumber="33" Mandatory="No"/>
    <ItemRef ItemOID="LB.LBTESTCD.ELLIPCY" OrderNumber="34" Mandatory="No"/>
    <ItemRef ItemOID="LB.LBTESTCD.EOS" OrderNumber="35" Mandatory="No"/>
    <ItemRef ItemOID="LB.LBTESTCD.EPIC" OrderNumber="36" Mandatory="No"/>
    <ItemRef ItemOID="LB.LBTESTCD.EPITCE" OrderNumber="37" Mandatory="No"/>
    <ItemRef ItemOID="LB.LBTESTCD.EPITUCE" OrderNumber="38" Mandatory="No"/>
    <ItemRef ItemOID="LB.LBTESTCD.GADAB" OrderNumber="39" Mandatory="No"/>
    <ItemRef ItemOID="LB.LBTESTCD.GGT" OrderNumber="40" Mandatory="No"/>
    <ItemRef ItemOID="LB.LBTESTCD.GLUC" OrderNumber="41" Mandatory="No"/>
    <ItemRef ItemOID="LB.LBTESTCD.HBA1C" OrderNumber="42" Mandatory="No"/>
    <ItemRef ItemOID="LB.LBTESTCD.HCG" OrderNumber="43" Mandatory="No"/>
    <ItemRef ItemOID="LB.LBTESTCD.HCT" OrderNumber="44" Mandatory="No"/>
    <ItemRef ItemOID="LB.LBTESTCD.HDL" OrderNumber="45" Mandatory="No"/>
    <ItemRef ItemOID="LB.LBTESTCD.HG3" OrderNumber="46" Mandatory="No"/>
    <ItemRef ItemOID="LB.LBTESTCD.HGB" OrderNumber="47" Mandatory="No"/>
    <ItemRef ItemOID="LB.LBTESTCD.HPOCROM" OrderNumber="48" Mandatory="No"/>
    <ItemRef ItemOID="LB.LBTESTCD.I20" OrderNumber="49" Mandatory="No"/>
    <ItemRef ItemOID="LB.LBTESTCD.I22" OrderNumber="50" Mandatory="No"/>
    <ItemRef ItemOID="LB.LBTESTCD.INSULIN" OrderNumber="51" Mandatory="No"/>
    <ItemRef ItemOID="LB.LBTESTCD.INTLK6" OrderNumber="52" Mandatory="No"/>
    <ItemRef ItemOID="LB.LBTESTCD.INTLK8" OrderNumber="53" Mandatory="No"/>
    <ItemRef ItemOID="LB.LBTESTCD.JE9" OrderNumber="54" Mandatory="No"/>
    <ItemRef ItemOID="LB.LBTESTCD.K" OrderNumber="55" Mandatory="No"/>
    <ItemRef ItemOID="LB.LBTESTCD.K03" OrderNumber="56" Mandatory="No"/>
    <ItemRef ItemOID="LB.LBTESTCD.KETONES" OrderNumber="57" Mandatory="No"/>
    <ItemRef ItemOID="LB.LBTESTCD.LDL" OrderNumber="58" Mandatory="No"/>
    <ItemRef ItemOID="LB.LBTESTCD.LEUKASE" OrderNumber="59" Mandatory="No"/>
    <ItemRef ItemOID="LB.LBTESTCD.LIPASE" OrderNumber="60" Mandatory="No"/>
    <ItemRef ItemOID="LB.LBTESTCD.LYM" OrderNumber="61" Mandatory="No"/>
    <ItemRef ItemOID="LB.LBTESTCD.LYMAT" OrderNumber="62" Mandatory="No"/>
    <ItemRef ItemOID="LB.LBTESTCD.MACROCY" OrderNumber="63" Mandatory="No"/>
    <ItemRef ItemOID="LB.LBTESTCD.MCHC" OrderNumber="64" Mandatory="No"/>
    <ItemRef ItemOID="LB.LBTESTCD.MCV" OrderNumber="65" Mandatory="No"/>
    <ItemRef ItemOID="LB.LBTESTCD.MICROCY" OrderNumber="66" Mandatory="No"/>
    <ItemRef ItemOID="LB.LBTESTCD.MONO" OrderNumber="67" Mandatory="No"/>
    <ItemRef ItemOID="LB.LBTESTCD.NEUTB" OrderNumber="68" Mandatory="No"/>
    <ItemRef ItemOID="LB.LBTESTCD.NEUTSG" OrderNumber="69" Mandatory="No"/>
    <ItemRef ItemOID="LB.LBTESTCD.NEUTVAC" OrderNumber="70" Mandatory="No"/>
    <ItemRef ItemOID="LB.LBTESTCD.OCCBLD" OrderNumber="71" Mandatory="No"/>
    <ItemRef ItemOID="LB.LBTESTCD.P22" OrderNumber="72" Mandatory="No"/>
    <ItemRef ItemOID="LB.LBTESTCD.P23" OrderNumber="73" Mandatory="No"/>
    <ItemRef ItemOID="LB.LBTESTCD.PLAT" OrderNumber="74" Mandatory="No"/>
    <ItemRef ItemOID="LB.LBTESTCD.PLATLRG" OrderNumber="75" Mandatory="No"/>
    <ItemRef ItemOID="LB.LBTESTCD.POIKILO" OrderNumber="76" Mandatory="No"/>
    <ItemRef ItemOID="LB.LBTESTCD.POLYCHR" OrderNumber="77" Mandatory="No"/>
    <ItemRef ItemOID="LB.LBTESTCD.PROT" OrderNumber="78" Mandatory="No"/>
    <ItemRef ItemOID="LB.LBTESTCD.RBC" OrderNumber="79" Mandatory="No"/>
    <ItemRef ItemOID="LB.LBTESTCD.RBCMORPH" OrderNumber="80" Mandatory="No"/>
    <ItemRef ItemOID="LB.LBTESTCD.ROULEAUX" OrderNumber="81" Mandatory="No"/>
    <ItemRef ItemOID="LB.LBTESTCD.S79" OrderNumber="82" Mandatory="No"/>
    <ItemRef ItemOID="LB.LBTESTCD.S82" OrderNumber="83" Mandatory="No"/>
    <ItemRef ItemOID="LB.LBTESTCD.SODIUM" OrderNumber="84" Mandatory="No"/>
    <ItemRef ItemOID="LB.LBTESTCD.TEARDCY" OrderNumber="85" Mandatory="No"/>
    <ItemRef ItemOID="LB.LBTESTCD.TNF" OrderNumber="86" Mandatory="No"/>
    <ItemRef ItemOID="LB.LBTESTCD.TRGTCE" OrderNumber="87" Mandatory="No"/>
    <ItemRef ItemOID="LB.LBTESTCD.TRIG" OrderNumber="88" Mandatory="No"/>
    <ItemRef ItemOID="LB.LBTESTCD.TROPONI" OrderNumber="89" Mandatory="No"/>
    <ItemRef ItemOID="LB.LBTESTCD.TROPONT" OrderNumber="90" Mandatory="No"/>
    <ItemRef ItemOID="LB.LBTESTCD.WBC" OrderNumber="91" Mandatory="No"/>
    <ItemRef ItemOID="LB.LBTESTCD.YEAST" OrderNumber="92" Mandatory="No"/>
  </def:ValueListDef>
  <def:ValueListDef OID="PC.PCTESTCD">
    <ItemRef ItemOID="PC.PCTESTCD.R39" OrderNumber="1" Mandatory="No"/>
  </def:ValueListDef>
  <def:ValueListDef OID="QS.QSTESTCD">
    <ItemRef ItemOID="QS.QSTESTCD.HYPTENFL" OrderNumber="1" Mandatory="No"/>
  </def:ValueListDef>
  <def:ValueListDef OID="SC.SCTESTCD">
    <ItemRef ItemOID="SC.SCTESTCD.DNAORG61" OrderNumber="1" Mandatory="No"/>
    <ItemRef ItemOID="SC.SCTESTCD.DNAORG62" OrderNumber="2" Mandatory="No"/>
    <ItemRef ItemOID="SC.SCTESTCD.DNAORG63" OrderNumber="3" Mandatory="No"/>
    <ItemRef ItemOID="SC.SCTESTCD.DNAORG71" OrderNumber="4" Mandatory="No"/>
    <ItemRef ItemOID="SC.SCTESTCD.DNAORG72" OrderNumber="5" Mandatory="No"/>
    <ItemRef ItemOID="SC.SCTESTCD.DNAORG73" OrderNumber="6" Mandatory="No"/>
    <ItemRef ItemOID="SC.SCTESTCD.DNAORG81" OrderNumber="7" Mandatory="No"/>
    <ItemRef ItemOID="SC.SCTESTCD.DNAORG82" OrderNumber="8" Mandatory="No"/>
    <ItemRef ItemOID="SC.SCTESTCD.DNAORG83" OrderNumber="9" Mandatory="No"/>
    <ItemRef ItemOID="SC.SCTESTCD.DNAORG91" OrderNumber="10" Mandatory="No"/>
    <ItemRef ItemOID="SC.SCTESTCD.DNAORG92" OrderNumber="11" Mandatory="No"/>
    <ItemRef ItemOID="SC.SCTESTCD.DNAORG93" OrderNumber="12" Mandatory="No"/>
  </def:ValueListDef>
  <def:ValueListDef OID="SUPPAE.QNAM">
    <ItemRef ItemOID="SUPPAE.QNAM.AECDVER" OrderNumber="1" Mandatory="No"/>
    <ItemRef ItemOID="SUPPAE.QNAM.AERPVER" OrderNumber="2" Mandatory="No"/>
    <ItemRef ItemOID="SUPPAE.QNAM.AERSTDIS" OrderNumber="3" Mandatory="No"/>
    <ItemRef ItemOID="SUPPAE.QNAM.AERSTPRC" OrderNumber="4" Mandatory="No"/>
    <ItemRef ItemOID="SUPPAE.QNAM.AETRTEM" OrderNumber="5" Mandatory="No"/>
  </def:ValueListDef>
  <def:ValueListDef OID="SUPPCM.QNAM">
    <ItemRef ItemOID="SUPPCM.QNAM.CMENREAS" OrderNumber="1" Mandatory="No"/>
    <ItemRef ItemOID="SUPPCM.QNAM.DOSEADJ" OrderNumber="2" Mandatory="No"/>
    <ItemRef ItemOID="SUPPCM.QNAM.PTLBL" OrderNumber="3" Mandatory="No"/>
    <ItemRef ItemOID="SUPPCM.QNAM.REASADJ" OrderNumber="4" Mandatory="No"/>
  </def:ValueListDef>
  <def:ValueListDef OID="SUPPDA.QNAM">
    <ItemRef ItemOID="SUPPDA.QNAM.DALOT" OrderNumber="1" Mandatory="No"/>
    <ItemRef ItemOID="SUPPDA.QNAM.DAPKDESC" OrderNumber="2" Mandatory="No"/>
    <ItemRef ItemOID="SUPPDA.QNAM.DAPKTPID" OrderNumber="3" Mandatory="No"/>
  </def:ValueListDef>
  <def:ValueListDef OID="SUPPDM.QNAM">
    <ItemRef ItemOID="SUPPDM.QNAM.RACEEVAL" OrderNumber="1" Mandatory="No"/>
    <ItemRef ItemOID="SUPPDM.QNAM.RACE_1" OrderNumber="2" Mandatory="No"/>
    <ItemRef ItemOID="SUPPDM.QNAM.RACE_84" OrderNumber="3" Mandatory="No"/>
  </def:ValueListDef>
  <def:ValueListDef OID="SUPPDS.QNAM">
    <ItemRef ItemOID="SUPPDS.QNAM.DSEVAL" OrderNumber="1" Mandatory="No"/>
    <ItemRef ItemOID="SUPPDS.QNAM.ICSTP" OrderNumber="2" Mandatory="No"/>
  </def:ValueListDef>
  <def:ValueListDef OID="SUPPEG.QNAM">
    <ItemRef ItemOID="SUPPEG.QNAM.EGGLSTCD" OrderNumber="1" Mandatory="No"/>
    <ItemRef ItemOID="SUPPEG.QNAM.EGRESSRC" OrderNumber="2" Mandatory="No"/>
  </def:ValueListDef>
  <def:ValueListDef OID="SUPPEX.QNAM">
    <ItemRef ItemOID="SUPPEX.QNAM.DOSEDESC" OrderNumber="1" Mandatory="No"/>
    <ItemRef ItemOID="SUPPEX.QNAM.TRTDESC" OrderNumber="2" Mandatory="No"/>
  </def:ValueListDef>
  <def:ValueListDef OID="SUPPFA.QNAM">
    <ItemRef ItemOID="SUPPFA.QNAM.DOSEDESC" OrderNumber="1" Mandatory="No"/>
  </def:ValueListDef>
  <def:ValueListDef OID="SUPPLB.QNAM">
    <ItemRef ItemOID="SUPPLB.QNAM.LBGLSTCD" OrderNumber="1" Mandatory="No"/>
    <ItemRef ItemOID="SUPPLB.QNAM.LBNRINDO" OrderNumber="2" Mandatory="No"/>
    <ItemRef ItemOID="SUPPLB.QNAM.LBRESSRC" OrderNumber="3" Mandatory="No"/>
    <ItemRef ItemOID="SUPPLB.QNAM.LBSTRLAB" OrderNumber="4" Mandatory="No"/>
  </def:ValueListDef>
  <def:ValueListDef OID="SUPPMH.QNAM">
    <ItemRef ItemOID="SUPPMH.QNAM.MHCDVER" OrderNumber="1" Mandatory="No"/>
    <ItemRef ItemOID="SUPPMH.QNAM.MHRPVER" OrderNumber="2" Mandatory="No"/>
  </def:ValueListDef>
  <def:ValueListDef OID="SUPPPC.QNAM">
    <ItemRef ItemOID="SUPPPC.QNAM.PCRESSRC" OrderNumber="1" Mandatory="No"/>
  </def:ValueListDef>
  <def:ValueListDef OID="TI.IETESTCD">
    <ItemRef ItemOID="TI.IETESTCD.EXC11" OrderNumber="1" Mandatory="No"/>
    <ItemRef ItemOID="TI.IETESTCD.EXC12" OrderNumber="2" Mandatory="No"/>
    <ItemRef ItemOID="TI.IETESTCD.EXC13" OrderNumber="3" Mandatory="No"/>
    <ItemRef ItemOID="TI.IETESTCD.EXC14" OrderNumber="4" Mandatory="No"/>
    <ItemRef ItemOID="TI.IETESTCD.EXC15" OrderNumber="5" Mandatory="No"/>
    <ItemRef ItemOID="TI.IETESTCD.EXC16" OrderNumber="6" Mandatory="No"/>
    <ItemRef ItemOID="TI.IETESTCD.EXC17" OrderNumber="7" Mandatory="No"/>
    <ItemRef ItemOID="TI.IETESTCD.EXC18" OrderNumber="8" Mandatory="No"/>
    <ItemRef ItemOID="TI.IETESTCD.EXC19" OrderNumber="9" Mandatory="No"/>
    <ItemRef ItemOID="TI.IETESTCD.EXC20" OrderNumber="10" Mandatory="No"/>
    <ItemRef ItemOID="TI.IETESTCD.EXC21" OrderNumber="11" Mandatory="No"/>
    <ItemRef ItemOID="TI.IETESTCD.EXC22" OrderNumber="12" Mandatory="No"/>
    <ItemRef ItemOID="TI.IETESTCD.EXC22A" OrderNumber="13" Mandatory="No"/>
    <ItemRef ItemOID="TI.IETESTCD.EXC23" OrderNumber="14" Mandatory="No"/>
    <ItemRef ItemOID="TI.IETESTCD.EXC24" OrderNumber="15" Mandatory="No"/>
    <ItemRef ItemOID="TI.IETESTCD.EXC25" OrderNumber="16" Mandatory="No"/>
    <ItemRef ItemOID="TI.IETESTCD.EXC26" OrderNumber="17" Mandatory="No"/>
    <ItemRef ItemOID="TI.IETESTCD.EXC27" OrderNumber="18" Mandatory="No"/>
    <ItemRef ItemOID="TI.IETESTCD.EXC28" OrderNumber="19" Mandatory="No"/>
    <ItemRef ItemOID="TI.IETESTCD.EXC29" OrderNumber="20" Mandatory="No"/>
    <ItemRef ItemOID="TI.IETESTCD.EXC30" OrderNumber="21" Mandatory="No"/>
    <ItemRef ItemOID="TI.IETESTCD.EXC31" OrderNumber="22" Mandatory="No"/>
    <ItemRef ItemOID="TI.IETESTCD.EXC32" OrderNumber="23" Mandatory="No"/>
    <ItemRef ItemOID="TI.IETESTCD.EXC33" OrderNumber="24" Mandatory="No"/>
    <ItemRef ItemOID="TI.IETESTCD.INC1" OrderNumber="25" Mandatory="No"/>
    <ItemRef ItemOID="TI.IETESTCD.INC10" OrderNumber="26" Mandatory="No"/>
    <ItemRef ItemOID="TI.IETESTCD.INC2" OrderNumber="27" Mandatory="No"/>
    <ItemRef ItemOID="TI.IETESTCD.INC3" OrderNumber="28" Mandatory="No"/>
    <ItemRef ItemOID="TI.IETESTCD.INC3A" OrderNumber="29" Mandatory="No"/>
    <ItemRef ItemOID="TI.IETESTCD.INC4" OrderNumber="30" Mandatory="No"/>
    <ItemRef ItemOID="TI.IETESTCD.INC4A" OrderNumber="31" Mandatory="No"/>
    <ItemRef ItemOID="TI.IETESTCD.INC5" OrderNumber="32" Mandatory="No"/>
    <ItemRef ItemOID="TI.IETESTCD.INC6" OrderNumber="33" Mandatory="No"/>
    <ItemRef ItemOID="TI.IETESTCD.INC7" OrderNumber="34" Mandatory="No"/>
    <ItemRef ItemOID="TI.IETESTCD.INC7A" OrderNumber="35" Mandatory="No"/>
    <ItemRef ItemOID="TI.IETESTCD.INC8" OrderNumber="36" Mandatory="No"/>
    <ItemRef ItemOID="TI.IETESTCD.INC9" OrderNumber="37" Mandatory="No"/>
  </def:ValueListDef>
  <def:ValueListDef OID="VS.VSTESTCD">
    <ItemRef ItemOID="VS.VSTESTCD.DIABP" OrderNumber="1" Mandatory="No"/>
    <ItemRef ItemOID="VS.VSTESTCD.HEIGHT" OrderNumber="2" Mandatory="No"/>
    <ItemRef ItemOID="VS.VSTESTCD.PULSE" OrderNumber="3" Mandatory="No"/>
    <ItemRef ItemOID="VS.VSTESTCD.SYSBP" OrderNumber="4" Mandatory="No"/>
    <ItemRef ItemOID="VS.VSTESTCD.WEIGHT" OrderNumber="5" Mandatory="No"/>
  </def:ValueListDef>
  <!-- ******************************** -->
  <!-- Details of Domain Level Metadata -->
  <!-- ******************************** -->
  <ItemGroupDef OID="TA"
    Name="TA"
    Repeating="No"
    IsReferenceData="Yes"
    Purpose="Tabulation"
    def:Label="Trial Arms"
    def:Structure="One record per planned element per arm"
    def:DomainKeys="STUDYID, ARMCD, TAETORD"
    def:Class="Trial Design"
    def:ArchiveLocationID="ArchiveLocation.TA">
    <ItemRef ItemOID="TA.STUDYID"
      OrderNumber="1"
      Mandatory="Yes"
      Role="Identifier"
      RoleCodeListOID="RoleCodeList">
    </ItemRef>
    <ItemRef ItemOID="TA.DOMAIN"
      OrderNumber="2"
      Mandatory="Yes"
      Role="Identifier"
      RoleCodeListOID="RoleCodeList">
    </ItemRef>
    <ItemRef ItemOID="TA.ARMCD"
      OrderNumber="3"
      Mandatory="Yes"
      Role="Topic"
      RoleCodeListOID="RoleCodeList">
    </ItemRef>
    <ItemRef ItemOID="TA.ARM"
      OrderNumber="4"
      Mandatory="Yes"
      Role="Synonym Qualifier"
      RoleCodeListOID="RoleCodeList">
    </ItemRef>
    <ItemRef ItemOID="TA.TAETORD"
      OrderNumber="5"
      Mandatory="Yes"
      Role="Identifier"
      RoleCodeListOID="RoleCodeList">
    </ItemRef>
    <ItemRef ItemOID="TA.ETCD"
      OrderNumber="6"
      Mandatory="Yes"
      Role="Record Qualifier"
      RoleCodeListOID="RoleCodeList">
    </ItemRef>
    <ItemRef ItemOID="TA.ELEMENT"
      OrderNumber="7"
      Mandatory="No"
      Role="Synonym Qualifier"
      RoleCodeListOID="RoleCodeList">
    </ItemRef>
    <ItemRef ItemOID="TA.TABRANCH"
      OrderNumber="8"
      Mandatory="No"
      Role="Rule"
      RoleCodeListOID="RoleCodeList">
    </ItemRef>
    <ItemRef ItemOID="TA.TATRANS"
      OrderNumber="9"
      Mandatory="No"
      Role="Rule"
      RoleCodeListOID="RoleCodeList">
    </ItemRef>
    <ItemRef ItemOID="TA.EPOCH"
      OrderNumber="10"
      Mandatory="Yes"
      Role="Timing"
      RoleCodeListOID="RoleCodeList">
    </ItemRef>
    <def:leaf ID="ArchiveLocation.TA"
      xlink:href="ta.xpt">
      <def:title>ta.xpt</def:title>
    </def:leaf>
</ItemGroupDef>
  <ItemGroupDef OID="TE"
    Name="TE"
    Repeating="No"
    IsReferenceData="Yes"
    Purpose="Tabulation"
    def:Label="Trial Elements"
    def:Structure="One record per planned element"
    def:DomainKeys="STUDYID, ETCD"
    def:Class="Trial Design"
    def:ArchiveLocationID="ArchiveLocation.TE">
    <ItemRef ItemOID="TE.STUDYID"
      OrderNumber="1"
      Mandatory="Yes"
      Role="Identifier"
      RoleCodeListOID="RoleCodeList">
    </ItemRef>
    <ItemRef ItemOID="TE.DOMAIN"
      OrderNumber="2"
      Mandatory="Yes"
      Role="Identifier"
      RoleCodeListOID="RoleCodeList">
    </ItemRef>
    <ItemRef ItemOID="TE.ETCD"
      OrderNumber="3"
      Mandatory="Yes"
      Role="Topic"
      RoleCodeListOID="RoleCodeList">
    </ItemRef>
    <ItemRef ItemOID="TE.ELEMENT"
      OrderNumber="4"
      Mandatory="Yes"
      Role="Synonym Qualifier"
      RoleCodeListOID="RoleCodeList">
    </ItemRef>
    <ItemRef ItemOID="TE.TESTRL"
      OrderNumber="5"
      Mandatory="Yes"
      Role="Rule"
      RoleCodeListOID="RoleCodeList">
    </ItemRef>
    <ItemRef ItemOID="TE.TEENRL"
      OrderNumber="6"
      Mandatory="No"
      Role="Rule"
      RoleCodeListOID="RoleCodeList">
    </ItemRef>
    <ItemRef ItemOID="TE.TEDUR"
      OrderNumber="7"
      Mandatory="No"
      Role="Timing"
      RoleCodeListOID="RoleCodeList">
    </ItemRef>
    <def:leaf ID="ArchiveLocation.TE"
      xlink:href="te.xpt">
      <def:title>te.xpt</def:title>
    </def:leaf>
</ItemGroupDef>
  <ItemGroupDef OID="TI"
    Name="TI"
    Repeating="No"
    IsReferenceData="Yes"
    Purpose="Tabulation"
    def:Label="Trial Inclusion/Exclusion Criteria"
    def:Structure="One record per I/E criterion"
    def:DomainKeys="STUDYID, IETESTCD, TIVERS"
    def:Class="Trial Design"
    def:ArchiveLocationID="ArchiveLocation.TI">
    <ItemRef ItemOID="TI.STUDYID"
      OrderNumber="1"
      Mandatory="Yes"
      Role="Identifier"
      RoleCodeListOID="RoleCodeList">
    </ItemRef>
    <ItemRef ItemOID="TI.DOMAIN"
      OrderNumber="2"
      Mandatory="Yes"
      Role="Identifier"
      RoleCodeListOID="RoleCodeList">
    </ItemRef>
    <ItemRef ItemOID="TI.IETESTCD"
      OrderNumber="3"
      Mandatory="Yes"
      Role="Topic"
      RoleCodeListOID="RoleCodeList">
    </ItemRef>
    <ItemRef ItemOID="TI.IETEST"
      OrderNumber="4"
      Mandatory="Yes"
      Role="Synonym Qualifier"
      RoleCodeListOID="RoleCodeList">
    </ItemRef>
    <ItemRef ItemOID="TI.IECAT"
      OrderNumber="5"
      Mandatory="Yes"
      Role="Grouping Qualifier"
      RoleCodeListOID="RoleCodeList">
    </ItemRef>
    <ItemRef ItemOID="TI.IESCAT"
      OrderNumber="6"
      Mandatory="No"
      Role="Grouping Qualifier"
      RoleCodeListOID="RoleCodeList">
    </ItemRef>
    <ItemRef ItemOID="TI.TIRL"
      OrderNumber="7"
      Mandatory="No"
      Role="Rule"
      RoleCodeListOID="RoleCodeList">
    </ItemRef>
    <ItemRef ItemOID="TI.TIVERS"
      OrderNumber="8"
      Mandatory="No"
      Role="Record Qualifier"
      RoleCodeListOID="RoleCodeList">
    </ItemRef>
    <def:leaf ID="ArchiveLocation.TI"
      xlink:href="ti.xpt">
      <def:title>ti.xpt</def:title>
    </def:leaf>
</ItemGroupDef>
  <ItemGroupDef OID="TS"
    Name="TS"
    Repeating="No"
    IsReferenceData="Yes"
    Purpose="Tabulation"
    def:Label="Trial Summary"
    def:Structure="One record per trial summary parameter value"
    def:DomainKeys="STUDYID, TSPARMCD, TSSEQ"
    def:Class="Trial Design"
    def:ArchiveLocationID="ArchiveLocation.TS">
    <ItemRef ItemOID="TS.STUDYID"
      OrderNumber="1"
      Mandatory="Yes"
      Role="Identifier"
      RoleCodeListOID="RoleCodeList">
    </ItemRef>
    <ItemRef ItemOID="TS.DOMAIN"
      OrderNumber="2"
      Mandatory="Yes"
      Role="Identifier"
      RoleCodeListOID="RoleCodeList">
    </ItemRef>
    <ItemRef ItemOID="TS.TSSEQ"
      OrderNumber="3"
      Mandatory="Yes"
      Role="Identifier"
      RoleCodeListOID="RoleCodeList">
    </ItemRef>
    <ItemRef ItemOID="TS.TSGRPID"
      OrderNumber="4"
      Mandatory="No"
      Role="Identifier"
      RoleCodeListOID="RoleCodeList">
    </ItemRef>
    <ItemRef ItemOID="TS.TSPARMCD"
      OrderNumber="5"
      Mandatory="Yes"
      Role="Topic"
      RoleCodeListOID="RoleCodeList">
    </ItemRef>
    <ItemRef ItemOID="TS.TSPARM"
      OrderNumber="6"
      Mandatory="Yes"
      Role="Synonym Qualifier"
      RoleCodeListOID="RoleCodeList">
    </ItemRef>
    <ItemRef ItemOID="TS.TSVAL"
      OrderNumber="7"
      Mandatory="Yes"
      Role="Result Qualifier"
      RoleCodeListOID="RoleCodeList">
    </ItemRef>
    <ItemRef ItemOID="TS.TSVAL1"
      OrderNumber="8"
      Mandatory="No"
      Role="Result Qualifier"
      RoleCodeListOID="RoleCodeList">
    </ItemRef>
    <ItemRef ItemOID="TS.TSVAL2"
      OrderNumber="9"
      Mandatory="No"
      Role="Result Qualifier"
      RoleCodeListOID="RoleCodeList">
    </ItemRef>
    <def:leaf ID="ArchiveLocation.TS"
      xlink:href="ts.xpt">
      <def:title>ts.xpt</def:title>
    </def:leaf>
</ItemGroupDef>
  <ItemGroupDef OID="TV"
    Name="TV"
    Repeating="No"
    IsReferenceData="Yes"
    Purpose="Tabulation"
    def:Label="Trial Visits"
    def:Structure="One record per planned visit per arm"
    def:DomainKeys="STUDYID, VISITNUM, ARMCD"
    def:Class="Trial Design"
    def:ArchiveLocationID="ArchiveLocation.TV">
    <ItemRef ItemOID="TV.STUDYID"
      OrderNumber="1"
      Mandatory="Yes"
      Role="Identifier"
      RoleCodeListOID="RoleCodeList">
    </ItemRef>
    <ItemRef ItemOID="TV.DOMAIN"
      OrderNumber="2"
      Mandatory="Yes"
      Role="Identifier"
      RoleCodeListOID="RoleCodeList">
    </ItemRef>
    <ItemRef ItemOID="TV.VISITNUM"
      OrderNumber="3"
      Mandatory="Yes"
      Role="Topic"
      RoleCodeListOID="RoleCodeList">
    </ItemRef>
    <ItemRef ItemOID="TV.VISIT"
      OrderNumber="4"
      Mandatory="No"
      Role="Synonym Qualifier"
      RoleCodeListOID="RoleCodeList">
    </ItemRef>
    <ItemRef ItemOID="TV.VISITDY"
      OrderNumber="5"
      Mandatory="No"
      Role="Timing"
      RoleCodeListOID="RoleCodeList">
    </ItemRef>
    <ItemRef ItemOID="TV.ARMCD"
      OrderNumber="6"
      Mandatory="No"
      Role="Record Qualifier"
      RoleCodeListOID="RoleCodeList">
    </ItemRef>
    <ItemRef ItemOID="TV.ARM"
      OrderNumber="7"
      Mandatory="No"
      Role="Synonym Qualifier"
      RoleCodeListOID="RoleCodeList">
    </ItemRef>
    <ItemRef ItemOID="TV.TVSTRL"
      OrderNumber="8"
      Mandatory="No"
      Role="Rule"
      RoleCodeListOID="RoleCodeList">
    </ItemRef>
    <ItemRef ItemOID="TV.TVENRL"
      OrderNumber="9"
      Mandatory="No"
      Role="Rule"
      RoleCodeListOID="RoleCodeList">
    </ItemRef>
    <def:leaf ID="ArchiveLocation.TV"
      xlink:href="tv.xpt">
      <def:title>tv.xpt</def:title>
    </def:leaf>
</ItemGroupDef>
  <ItemGroupDef OID="CO"
    Name="CO"
    Repeating="Yes"
    IsReferenceData="No"
    Purpose="Tabulation"
    def:Label="Comments"
    def:Structure="One record per comment per subject"
    def:DomainKeys="STUDYID, USUBJID, RDOMAIN, IDVARVAL, COVAL"
    def:Class="Special Purpose"
    def:ArchiveLocationID="ArchiveLocation.CO">
    <ItemRef ItemOID="CO.STUDYID"
      OrderNumber="1"
      Mandatory="Yes"
      Role="Identifier"
      RoleCodeListOID="RoleCodeList">
    </ItemRef>
    <ItemRef ItemOID="CO.DOMAIN"
      OrderNumber="2"
      Mandatory="Yes"
      Role="Identifier"
      RoleCodeListOID="RoleCodeList">
    </ItemRef>
    <ItemRef ItemOID="CO.RDOMAIN"
      OrderNumber="3"
      Mandatory="No"
      Role="Record Qualifier"
      RoleCodeListOID="RoleCodeList">
    </ItemRef>
    <ItemRef ItemOID="CO.USUBJID"
      OrderNumber="4"
      Mandatory="Yes"
      Role="Identifier"
      RoleCodeListOID="RoleCodeList">
    </ItemRef>
    <ItemRef ItemOID="CO.COSEQ"
      OrderNumber="5"
      Mandatory="Yes"
      Role="Identifier"
      RoleCodeListOID="RoleCodeList">
    </ItemRef>
    <ItemRef ItemOID="CO.COGRPID"
      OrderNumber="6"
      Mandatory="No"
      Role="Identifier"
      RoleCodeListOID="RoleCodeList">
    </ItemRef>
    <ItemRef ItemOID="CO.IDVAR"
      OrderNumber="7"
      Mandatory="No"
      Role="Record Qualifier"
      RoleCodeListOID="RoleCodeList">
    </ItemRef>
    <ItemRef ItemOID="CO.IDVARVAL"
      OrderNumber="8"
      Mandatory="No"
      Role="Record Qualifier"
      RoleCodeListOID="RoleCodeList">
    </ItemRef>
    <ItemRef ItemOID="CO.COREF"
      OrderNumber="9"
      Mandatory="No"
      Role="Record Qualifier"
      RoleCodeListOID="RoleCodeList">
    </ItemRef>
    <ItemRef ItemOID="CO.COVAL"
      OrderNumber="10"
      Mandatory="Yes"
      Role="Topic"
      RoleCodeListOID="RoleCodeList">
    </ItemRef>
    <ItemRef ItemOID="CO.COVAL1"
      OrderNumber="11"
      Mandatory="Yes"
      Role="Topic"
      RoleCodeListOID="RoleCodeList">
    </ItemRef>
    <ItemRef ItemOID="CO.COVAL2"
      OrderNumber="12"
      Mandatory="Yes"
      Role="Topic"
      RoleCodeListOID="RoleCodeList">
    </ItemRef>
    <ItemRef ItemOID="CO.COEVAL"
      OrderNumber="13"
      Mandatory="No"
      Role="Record Qualifier"
      RoleCodeListOID="RoleCodeList">
    </ItemRef>
    <ItemRef ItemOID="CO.CODTC"
      OrderNumber="14"
      Mandatory="No"
      Role="Timing"
      RoleCodeListOID="RoleCodeList">
    </ItemRef>
    <def:leaf ID="ArchiveLocation.CO"
      xlink:href="co.xpt">
      <def:title>co.xpt</def:title>
    </def:leaf>
</ItemGroupDef>
  <ItemGroupDef OID="DM"
    Name="DM"
    Repeating="No"
    IsReferenceData="No"
    Purpose="Tabulation"
    def:Label="Demographics"
    def:Structure="One record per subject"
    def:DomainKeys="STUDYID, USUBJID"
    def:Class="Special Purpose"
    def:ArchiveLocationID="ArchiveLocation.DM">
    <ItemRef ItemOID="DM.STUDYID"
      OrderNumber="1"
      Mandatory="Yes"
      Role="Identifier"
      RoleCodeListOID="RoleCodeList">
    </ItemRef>
    <ItemRef ItemOID="DM.DOMAIN"
      OrderNumber="2"
      Mandatory="Yes"
      Role="Identifier"
      RoleCodeListOID="RoleCodeList">
    </ItemRef>
    <ItemRef ItemOID="DM.USUBJID"
      OrderNumber="3"
      Mandatory="Yes"
      Role="Identifier"
      RoleCodeListOID="RoleCodeList">
    </ItemRef>
    <ItemRef ItemOID="DM.SUBJID"
      OrderNumber="4"
      Mandatory="Yes"
      Role="Topic"
      RoleCodeListOID="RoleCodeList">
    </ItemRef>
    <ItemRef ItemOID="DM.RFSTDTC"
      OrderNumber="5"
      Mandatory="No"
      Role="Record Qualifier"
      RoleCodeListOID="RoleCodeList">
    </ItemRef>
    <ItemRef ItemOID="DM.RFENDTC"
      OrderNumber="6"
      Mandatory="No"
      Role="Record Qualifier"
      RoleCodeListOID="RoleCodeList">
    </ItemRef>
    <ItemRef ItemOID="DM.RFXSTDTC"
      OrderNumber="7"
      Mandatory="No"
      Role="Record Qualifier"
      RoleCodeListOID="RoleCodeList">
    </ItemRef>
    <ItemRef ItemOID="DM.RFXENDTC"
      OrderNumber="8"
      Mandatory="No"
      Role="Record Qualifier"
      RoleCodeListOID="RoleCodeList">
    </ItemRef>
    <ItemRef ItemOID="DM.RFICDTC"
      OrderNumber="9"
      Mandatory="No"
      Role="Record Qualifier"
      RoleCodeListOID="RoleCodeList">
    </ItemRef>
    <ItemRef ItemOID="DM.RFPENDTC"
      OrderNumber="10"
      Mandatory="No"
      Role="Record Qualifier"
      RoleCodeListOID="RoleCodeList">
    </ItemRef>
    <ItemRef ItemOID="DM.DTHDTC"
      OrderNumber="11"
      Mandatory="No"
      Role="Record Qualifier"
      RoleCodeListOID="RoleCodeList">
    </ItemRef>
    <ItemRef ItemOID="DM.DTHFL"
      OrderNumber="12"
      Mandatory="No"
      Role="Record Qualifier"
      RoleCodeListOID="RoleCodeList">
    </ItemRef>
    <ItemRef ItemOID="DM.SITEID"
      OrderNumber="13"
      Mandatory="Yes"
      Role="Record Qualifier"
      RoleCodeListOID="RoleCodeList">
    </ItemRef>
    <ItemRef ItemOID="DM.INVID"
      OrderNumber="14"
      Mandatory="No"
      Role="Record Qualifier"
      RoleCodeListOID="RoleCodeList">
    </ItemRef>
    <ItemRef ItemOID="DM.INVNAM"
      OrderNumber="15"
      Mandatory="No"
      Role="Synonym Qualifier"
      RoleCodeListOID="RoleCodeList">
    </ItemRef>
    <ItemRef ItemOID="DM.BRTHDTC"
      OrderNumber="16"
      Mandatory="No"
      Role="Record Qualifier"
      RoleCodeListOID="RoleCodeList">
    </ItemRef>
    <ItemRef ItemOID="DM.AGE"
      OrderNumber="17"
      Mandatory="No"
      Role="Record Qualifier"
      RoleCodeListOID="RoleCodeList">
    </ItemRef>
    <ItemRef ItemOID="DM.AGEU"
      OrderNumber="18"
      Mandatory="No"
      Role="Variable Qualifier"
      RoleCodeListOID="RoleCodeList">
    </ItemRef>
    <ItemRef ItemOID="DM.SEX"
      OrderNumber="19"
      Mandatory="Yes"
      Role="Record Qualifier"
      RoleCodeListOID="RoleCodeList">
    </ItemRef>
    <ItemRef ItemOID="DM.RACE"
      OrderNumber="20"
      Mandatory="No"
      Role="Record Qualifier"
      RoleCodeListOID="RoleCodeList">
    </ItemRef>
    <ItemRef ItemOID="DM.ETHNIC"
      OrderNumber="21"
      Mandatory="No"
      Role="Record Qualifier"
      RoleCodeListOID="RoleCodeList">
    </ItemRef>
    <ItemRef ItemOID="DM.ARMCD"
      OrderNumber="22"
      Mandatory="Yes"
      Role="Record Qualifier"
      RoleCodeListOID="RoleCodeList">
    </ItemRef>
    <ItemRef ItemOID="DM.ARM"
      OrderNumber="23"
      Mandatory="Yes"
      Role="Synonym Qualifier"
      RoleCodeListOID="RoleCodeList">
    </ItemRef>
    <ItemRef ItemOID="DM.ACTARMCD"
      OrderNumber="24"
      Mandatory="Yes"
      Role="Record Qualifier"
      RoleCodeListOID="RoleCodeList">
    </ItemRef>
    <ItemRef ItemOID="DM.ACTARM"
      OrderNumber="25"
      Mandatory="Yes"
      Role="Synonym Qualifier"
      RoleCodeListOID="RoleCodeList">
    </ItemRef>
    <ItemRef ItemOID="DM.COUNTRY"
      OrderNumber="26"
      Mandatory="Yes"
      Role="Record Qualifier"
      RoleCodeListOID="RoleCodeList">
    </ItemRef>
    <def:leaf ID="ArchiveLocation.DM"
      xlink:href="dm.xpt">
      <def:title>dm.xpt</def:title>
    </def:leaf>
</ItemGroupDef>
  <ItemGroupDef OID="RELREC"
    Name="RELREC"
    Repeating="Yes"
    IsReferenceData="No"
    Purpose="Tabulation"
    def:Label="Related Records"
    def:Structure="One record per related record, group of records, or datasets"
    def:DomainKeys="STUDYID, RDOMAIN, USUBJID, IDVAR, IDVARVAL, RELID"
    def:Class="Special Purpose"
    def:ArchiveLocationID="ArchiveLocation.RELREC">
    <ItemRef ItemOID="RELREC.STUDYID"
      OrderNumber="1"
      Mandatory="Yes"
      Role="Identifier"
      RoleCodeListOID="RoleCodeList">
    </ItemRef>
    <ItemRef ItemOID="RELREC.RDOMAIN"
      OrderNumber="2"
      Mandatory="Yes"
      Role="Identifier"
      RoleCodeListOID="RoleCodeList">
    </ItemRef>
    <ItemRef ItemOID="RELREC.USUBJID"
      OrderNumber="3"
      Mandatory="Yes"
      Role="Identifier"
      RoleCodeListOID="RoleCodeList">
    </ItemRef>
    <ItemRef ItemOID="RELREC.IDVAR"
      OrderNumber="4"
      Mandatory="Yes"
      Role="Identifier"
      RoleCodeListOID="RoleCodeList">
    </ItemRef>
    <ItemRef ItemOID="RELREC.IDVARVAL"
      OrderNumber="5"
      Mandatory="Yes"
      Role="Identifier"
      RoleCodeListOID="RoleCodeList">
    </ItemRef>
    <ItemRef ItemOID="RELREC.RELTYPE"
      OrderNumber="6"
      Mandatory="No"
      Role="Identifier"
      RoleCodeListOID="RoleCodeList">
    </ItemRef>
    <ItemRef ItemOID="RELREC.RELID"
      OrderNumber="7"
      Mandatory="Yes"
      Role="Identifier"
      RoleCodeListOID="RoleCodeList">
    </ItemRef>
    <def:leaf ID="ArchiveLocation.RELREC"
      xlink:href="relrec.xpt">
      <def:title>relrec.xpt</def:title>
    </def:leaf>
</ItemGroupDef>
  <ItemGroupDef OID="SE"
    Name="SE"
    Repeating="Yes"
    IsReferenceData="No"
    Purpose="Tabulation"
    def:Label="Subject Elements"
    def:Structure="One record per actual element per subject"
    def:DomainKeys="STUDYID, USUBJID,  SESTDTC, SEENDTC"
    def:Class="Special Purpose"
    def:ArchiveLocationID="ArchiveLocation.SE">
    <ItemRef ItemOID="SE.STUDYID"
      OrderNumber="1"
      Mandatory="Yes"
      Role="Identifier"
      RoleCodeListOID="RoleCodeList">
    </ItemRef>
    <ItemRef ItemOID="SE.DOMAIN"
      OrderNumber="2"
      Mandatory="Yes"
      Role="Identifier"
      RoleCodeListOID="RoleCodeList">
    </ItemRef>
    <ItemRef ItemOID="SE.USUBJID"
      OrderNumber="3"
      Mandatory="Yes"
      Role="Identifier"
      RoleCodeListOID="RoleCodeList">
    </ItemRef>
    <ItemRef ItemOID="SE.SESEQ"
      OrderNumber="4"
      Mandatory="Yes"
      Role="Identifier"
      RoleCodeListOID="RoleCodeList">
    </ItemRef>
    <ItemRef ItemOID="SE.ETCD"
      OrderNumber="5"
      Mandatory="Yes"
      Role="Topic"
      RoleCodeListOID="RoleCodeList">
    </ItemRef>
    <ItemRef ItemOID="SE.ELEMENT"
      OrderNumber="6"
      Mandatory="No"
      Role="Synonym Qualifier"
      RoleCodeListOID="RoleCodeList">
    </ItemRef>
    <ItemRef ItemOID="SE.SESTDTC"
      OrderNumber="7"
      Mandatory="Yes"
      Role="Timing"
      RoleCodeListOID="RoleCodeList">
    </ItemRef>
    <ItemRef ItemOID="SE.SEENDTC"
      OrderNumber="8"
      Mandatory="No"
      Role="Timing"
      RoleCodeListOID="RoleCodeList">
    </ItemRef>
    <ItemRef ItemOID="SE.SESTDY"
      OrderNumber="9"
      Mandatory="No"
      Role="Timing"
      RoleCodeListOID="RoleCodeList">
    </ItemRef>
    <ItemRef ItemOID="SE.SEENDY"
      OrderNumber="10"
      Mandatory="No"
      Role="Timing"
      RoleCodeListOID="RoleCodeList">
    </ItemRef>
    <ItemRef ItemOID="SE.TAETORD"
      OrderNumber="11"
      Mandatory="No"
      Role="Timing"
      RoleCodeListOID="RoleCodeList">
    </ItemRef>
    <ItemRef ItemOID="SE.EPOCH"
      OrderNumber="12"
      Mandatory="No"
      Role="Timing"
      RoleCodeListOID="RoleCodeList">
    </ItemRef>
    <ItemRef ItemOID="SE.SEUPDES"
      OrderNumber="13"
      Mandatory="No"
      Role="Synonym Qualifier"
      RoleCodeListOID="RoleCodeList">
    </ItemRef>
    <def:leaf ID="ArchiveLocation.SE"
      xlink:href="se.xpt">
      <def:title>se.xpt</def:title>
    </def:leaf>
</ItemGroupDef>
  <ItemGroupDef OID="SV"
    Name="SV"
    Repeating="Yes"
    IsReferenceData="No"
    Purpose="Tabulation"
    def:Label="Subject Visits"
    def:Structure="One record per actual visit per subject"
    def:DomainKeys="STUDYID, USUBJID, VISITNUM"
    def:Class="Special Purpose"
    def:ArchiveLocationID="ArchiveLocation.SV">
    <ItemRef ItemOID="SV.STUDYID"
      OrderNumber="1"
      Mandatory="Yes"
      Role="Identifier"
      RoleCodeListOID="RoleCodeList">
    </ItemRef>
    <ItemRef ItemOID="SV.DOMAIN"
      OrderNumber="2"
      Mandatory="Yes"
      Role="Identifier"
      RoleCodeListOID="RoleCodeList">
    </ItemRef>
    <ItemRef ItemOID="SV.USUBJID"
      OrderNumber="3"
      Mandatory="Yes"
      Role="Identifier"
      RoleCodeListOID="RoleCodeList">
    </ItemRef>
    <ItemRef ItemOID="SV.VISITNUM"
      OrderNumber="4"
      Mandatory="Yes"
      Role="Topic"
      RoleCodeListOID="RoleCodeList">
    </ItemRef>
    <ItemRef ItemOID="SV.VISIT"
      OrderNumber="5"
      Mandatory="No"
      Role="Synonym Qualifier"
      RoleCodeListOID="RoleCodeList">
    </ItemRef>
    <ItemRef ItemOID="SV.VISITDY"
      OrderNumber="6"
      Mandatory="No"
      Role="Timing"
      RoleCodeListOID="RoleCodeList">
    </ItemRef>
    <ItemRef ItemOID="SV.EPOCH"
      OrderNumber="7"
      Mandatory="No"
      Role="Timing"
      RoleCodeListOID="RoleCodeList">
    </ItemRef>
    <ItemRef ItemOID="SV.SVSTDTC"
      OrderNumber="8"
      Mandatory="No"
      Role="Timing"
      RoleCodeListOID="RoleCodeList">
    </ItemRef>
    <ItemRef ItemOID="SV.SVENDTC"
      OrderNumber="9"
      Mandatory="No"
      Role="Timing"
      RoleCodeListOID="RoleCodeList">
    </ItemRef>
    <ItemRef ItemOID="SV.SVSTDY"
      OrderNumber="10"
      Mandatory="No"
      Role="Timing"
      RoleCodeListOID="RoleCodeList">
    </ItemRef>
    <ItemRef ItemOID="SV.SVENDY"
      OrderNumber="11"
      Mandatory="No"
      Role="Timing"
      RoleCodeListOID="RoleCodeList">
    </ItemRef>
    <ItemRef ItemOID="SV.SVUPDES"
      OrderNumber="12"
      Mandatory="No"
      Role="Synonym Qualifier"
      RoleCodeListOID="RoleCodeList">
    </ItemRef>
    <def:leaf ID="ArchiveLocation.SV"
      xlink:href="sv.xpt">
      <def:title>sv.xpt</def:title>
    </def:leaf>
</ItemGroupDef>
  <ItemGroupDef OID="CM"
    Name="CM"
    Repeating="Yes"
    IsReferenceData="No"
    Purpose="Tabulation"
    def:Label="Concomitant Medications"
    def:Structure="One record per recorded medication occurrence or constant dosing interval per subject."
    def:DomainKeys="STUDYID, USUBJID, CMTRT, CMSTDTC, CMENDTC, VISITNUM, CMDOSTOT"
    def:Class="Interventions"
    def:ArchiveLocationID="ArchiveLocation.CM">
    <ItemRef ItemOID="CM.STUDYID"
      OrderNumber="1"
      Mandatory="Yes"
      Role="Identifier"
      RoleCodeListOID="RoleCodeList">
    </ItemRef>
    <ItemRef ItemOID="CM.DOMAIN"
      OrderNumber="2"
      Mandatory="Yes"
      Role="Identifier"
      RoleCodeListOID="RoleCodeList">
    </ItemRef>
    <ItemRef ItemOID="CM.USUBJID"
      OrderNumber="3"
      Mandatory="Yes"
      Role="Identifier"
      RoleCodeListOID="RoleCodeList">
    </ItemRef>
    <ItemRef ItemOID="CM.CMSEQ"
      OrderNumber="4"
      Mandatory="Yes"
      Role="Identifier"
      RoleCodeListOID="RoleCodeList">
    </ItemRef>
    <ItemRef ItemOID="CM.CMGRPID"
      OrderNumber="5"
      Mandatory="No"
      Role="Identifier"
      RoleCodeListOID="RoleCodeList">
    </ItemRef>
    <ItemRef ItemOID="CM.CMSPID"
      OrderNumber="6"
      Mandatory="No"
      Role="Identifier"
      RoleCodeListOID="RoleCodeList">
    </ItemRef>
    <ItemRef ItemOID="CM.CMTRT"
      OrderNumber="7"
      Mandatory="Yes"
      Role="Topic"
      RoleCodeListOID="RoleCodeList">
    </ItemRef>
    <ItemRef ItemOID="CM.CMMODIFY"
      OrderNumber="8"
      Mandatory="No"
      Role="Synonym Qualifier"
      RoleCodeListOID="RoleCodeList">
    </ItemRef>
    <ItemRef ItemOID="CM.CMDECOD"
      OrderNumber="9"
      Mandatory="No"
      Role="Synonym Qualifier"
      RoleCodeListOID="RoleCodeList">
    </ItemRef>
    <ItemRef ItemOID="CM.CMCAT"
      OrderNumber="10"
      Mandatory="No"
      Role="Grouping Qualifier"
      RoleCodeListOID="RoleCodeList">
    </ItemRef>
    <ItemRef ItemOID="CM.CMSCAT"
      OrderNumber="11"
      Mandatory="No"
      Role="Grouping Qualifier"
      RoleCodeListOID="RoleCodeList">
    </ItemRef>
    <ItemRef ItemOID="CM.CMPRESP"
      OrderNumber="12"
      Mandatory="No"
      Role="Record Qualifier"
      RoleCodeListOID="RoleCodeList">
    </ItemRef>
    <ItemRef ItemOID="CM.CMOCCUR"
      OrderNumber="13"
      Mandatory="No"
      Role="Record Qualifier"
      RoleCodeListOID="RoleCodeList">
    </ItemRef>
    <ItemRef ItemOID="CM.CMSTAT"
      OrderNumber="14"
      Mandatory="No"
      Role="Record Qualifier"
      RoleCodeListOID="RoleCodeList">
    </ItemRef>
    <ItemRef ItemOID="CM.CMREASND"
      OrderNumber="15"
      Mandatory="No"
      Role="Record Qualifier"
      RoleCodeListOID="RoleCodeList">
    </ItemRef>
    <ItemRef ItemOID="CM.CMINDC"
      OrderNumber="16"
      Mandatory="No"
      Role="Record Qualifier"
      RoleCodeListOID="RoleCodeList">
    </ItemRef>
    <ItemRef ItemOID="CM.CMCLAS"
      OrderNumber="17"
      Mandatory="No"
      Role="Variable Qualifier"
      RoleCodeListOID="RoleCodeList">
    </ItemRef>
    <ItemRef ItemOID="CM.CMCLASCD"
      OrderNumber="18"
      Mandatory="No"
      Role="Variable Qualifier"
      RoleCodeListOID="RoleCodeList">
    </ItemRef>
    <ItemRef ItemOID="CM.CMDOSE"
      OrderNumber="19"
      Mandatory="No"
      Role="Record Qualifier"
      RoleCodeListOID="RoleCodeList">
    </ItemRef>
    <ItemRef ItemOID="CM.CMDOSTXT"
      OrderNumber="20"
      Mandatory="No"
      Role="Record Qualifier"
      RoleCodeListOID="RoleCodeList">
    </ItemRef>
    <ItemRef ItemOID="CM.CMDOSU"
      OrderNumber="21"
      Mandatory="No"
      Role="Variable Qualifier"
      RoleCodeListOID="RoleCodeList">
    </ItemRef>
    <ItemRef ItemOID="CM.CMDOSFRM"
      OrderNumber="22"
      Mandatory="No"
      Role="Record Qualifier"
      RoleCodeListOID="RoleCodeList">
    </ItemRef>
    <ItemRef ItemOID="CM.CMDOSFRQ"
      OrderNumber="23"
      Mandatory="No"
      Role="Variable Qualifier"
      RoleCodeListOID="RoleCodeList">
    </ItemRef>
    <ItemRef ItemOID="CM.CMDOSTOT"
      OrderNumber="24"
      Mandatory="No"
      Role="Record Qualifier"
      RoleCodeListOID="RoleCodeList">
    </ItemRef>
    <ItemRef ItemOID="CM.CMDOSRGM"
      OrderNumber="25"
      Mandatory="No"
      Role="Variable Qualifier"
      RoleCodeListOID="RoleCodeList">
    </ItemRef>
    <ItemRef ItemOID="CM.CMROUTE"
      OrderNumber="26"
      Mandatory="No"
      Role="Variable Qualifier"
      RoleCodeListOID="RoleCodeList">
    </ItemRef>
    <ItemRef ItemOID="CM.CMLOC"
      OrderNumber="27"
      Mandatory="No"
      Role="Record Qualifier"
      RoleCodeListOID="RoleCodeList">
    </ItemRef>
    <ItemRef ItemOID="CM.CMVAMT"
      OrderNumber="28"
      Mandatory="No"
      Role="Record Qualifier"
      RoleCodeListOID="RoleCodeList">
    </ItemRef>
    <ItemRef ItemOID="CM.CMVAMTU"
      OrderNumber="29"
      Mandatory="No"
      Role="Variable Qualifier"
      RoleCodeListOID="RoleCodeList">
    </ItemRef>
    <ItemRef ItemOID="CM.VISITNUM"
      OrderNumber="30"
      Mandatory="No"
      Role="Timing"
      RoleCodeListOID="RoleCodeList">
    </ItemRef>
    <ItemRef ItemOID="CM.VISIT"
      OrderNumber="31"
      Mandatory="No"
      Role="Timing"
      RoleCodeListOID="RoleCodeList">
    </ItemRef>
    <ItemRef ItemOID="CM.EPOCH"
      OrderNumber="32"
      Mandatory="No"
      Role="Timing"
      RoleCodeListOID="RoleCodeList">
    </ItemRef>
    <ItemRef ItemOID="CM.CMSTDTC"
      OrderNumber="33"
      Mandatory="No"
      Role="Timing"
      RoleCodeListOID="RoleCodeList">
    </ItemRef>
    <ItemRef ItemOID="CM.CMENDTC"
      OrderNumber="34"
      Mandatory="No"
      Role="Timing"
      RoleCodeListOID="RoleCodeList">
    </ItemRef>
    <ItemRef ItemOID="CM.CMSTDY"
      OrderNumber="35"
      Mandatory="No"
      Role="Timing"
      RoleCodeListOID="RoleCodeList">
    </ItemRef>
    <ItemRef ItemOID="CM.CMENDY"
      OrderNumber="36"
      Mandatory="No"
      Role="Timing"
      RoleCodeListOID="RoleCodeList">
    </ItemRef>
    <ItemRef ItemOID="CM.CMDUR"
      OrderNumber="37"
      Mandatory="No"
      Role="Timing"
      RoleCodeListOID="RoleCodeList">
    </ItemRef>
    <ItemRef ItemOID="CM.CMSTRF"
      OrderNumber="38"
      Mandatory="No"
      Role="Timing"
      RoleCodeListOID="RoleCodeList">
    </ItemRef>
    <ItemRef ItemOID="CM.CMENRF"
      OrderNumber="39"
      Mandatory="No"
      Role="Timing"
      RoleCodeListOID="RoleCodeList">
    </ItemRef>
    <ItemRef ItemOID="CM.CMSTRTPT"
      OrderNumber="40"
      Mandatory="No"
      Role="Timing"
      RoleCodeListOID="RoleCodeList">
    </ItemRef>
    <ItemRef ItemOID="CM.CMSTTPT"
      OrderNumber="41"
      Mandatory="No"
      Role="Timing"
      RoleCodeListOID="RoleCodeList">
    </ItemRef>
    <ItemRef ItemOID="CM.CMEVLINT"
      OrderNumber="42"
      Mandatory="No"
      Role="Timing"
      RoleCodeListOID="RoleCodeList">
    </ItemRef>
    <def:leaf ID="ArchiveLocation.CM"
      xlink:href="cm.xpt">
      <def:title>cm.xpt</def:title>
    </def:leaf>
</ItemGroupDef>
  <ItemGroupDef OID="EX"
    Name="EX"
    Repeating="Yes"
    IsReferenceData="No"
    Purpose="Tabulation"
    def:Label="Exposure"
    def:Structure="One record per constant dosing interval per subject"
    def:DomainKeys="STUDYID, USUBJID, EXTRT, EXSTDTC, VISITNUM, EXGRPID"
    def:Class="Interventions"
    def:ArchiveLocationID="ArchiveLocation.EX">
    <ItemRef ItemOID="EX.STUDYID"
      OrderNumber="1"
      Mandatory="Yes"
      Role="Identifier"
      RoleCodeListOID="RoleCodeList">
    </ItemRef>
    <ItemRef ItemOID="EX.DOMAIN"
      OrderNumber="2"
      Mandatory="Yes"
      Role="Identifier"
      RoleCodeListOID="RoleCodeList">
    </ItemRef>
    <ItemRef ItemOID="EX.USUBJID"
      OrderNumber="3"
      Mandatory="Yes"
      Role="Identifier"
      RoleCodeListOID="RoleCodeList">
    </ItemRef>
    <ItemRef ItemOID="EX.EXSEQ"
      OrderNumber="4"
      Mandatory="Yes"
      Role="Identifier"
      RoleCodeListOID="RoleCodeList">
    </ItemRef>
    <ItemRef ItemOID="EX.EXGRPID"
      OrderNumber="5"
      Mandatory="No"
      Role="Identifier"
      RoleCodeListOID="RoleCodeList">
    </ItemRef>
    <ItemRef ItemOID="EX.EXREFID"
      OrderNumber="6"
      Mandatory="No"
      Role="Identifier"
      RoleCodeListOID="RoleCodeList">
    </ItemRef>
    <ItemRef ItemOID="EX.EXSPID"
      OrderNumber="7"
      Mandatory="No"
      Role="Identifier"
      RoleCodeListOID="RoleCodeList">
    </ItemRef>
    <ItemRef ItemOID="EX.EXTRT"
      OrderNumber="8"
      Mandatory="Yes"
      Role="Topic"
      RoleCodeListOID="RoleCodeList">
    </ItemRef>
    <ItemRef ItemOID="EX.EXCAT"
      OrderNumber="9"
      Mandatory="No"
      Role="Grouping Qualifier"
      RoleCodeListOID="RoleCodeList">
    </ItemRef>
    <ItemRef ItemOID="EX.EXSCAT"
      OrderNumber="10"
      Mandatory="No"
      Role="Grouping Qualifier"
      RoleCodeListOID="RoleCodeList">
    </ItemRef>
    <ItemRef ItemOID="EX.EXSTAT"
      OrderNumber="11"
      Mandatory="No"
      Role="Record Qualifier"
      RoleCodeListOID="RoleCodeList">
    </ItemRef>
    <ItemRef ItemOID="EX.EXREASND"
      OrderNumber="12"
      Mandatory="No"
      Role="Record Qualifier"
      RoleCodeListOID="RoleCodeList">
    </ItemRef>
    <ItemRef ItemOID="EX.EXDOSE"
      OrderNumber="13"
      Mandatory="No"
      Role="Record Qualifier"
      RoleCodeListOID="RoleCodeList">
    </ItemRef>
    <ItemRef ItemOID="EX.EXDOSTXT"
      OrderNumber="14"
      Mandatory="No"
      Role="Record Qualifier"
      RoleCodeListOID="RoleCodeList">
    </ItemRef>
    <ItemRef ItemOID="EX.EXDOSU"
      OrderNumber="15"
      Mandatory="No"
      Role="Variable Qualifier"
      RoleCodeListOID="RoleCodeList">
    </ItemRef>
    <ItemRef ItemOID="EX.EXDOSFRM"
      OrderNumber="16"
      Mandatory="No"
      Role="Record Qualifier"
      RoleCodeListOID="RoleCodeList">
    </ItemRef>
    <ItemRef ItemOID="EX.EXDOSFRQ"
      OrderNumber="17"
      Mandatory="No"
      Role="Variable Qualifier"
      RoleCodeListOID="RoleCodeList">
    </ItemRef>
    <ItemRef ItemOID="EX.EXDOSTOT"
      OrderNumber="18"
      Mandatory="No"
      Role="Record Qualifier"
      RoleCodeListOID="RoleCodeList">
    </ItemRef>
    <ItemRef ItemOID="EX.EXDOSRGM"
      OrderNumber="19"
      Mandatory="No"
      Role="Variable Qualifier"
      RoleCodeListOID="RoleCodeList">
    </ItemRef>
    <ItemRef ItemOID="EX.EXROUTE"
      OrderNumber="20"
      Mandatory="No"
      Role="Variable Qualifier"
      RoleCodeListOID="RoleCodeList">
    </ItemRef>
    <ItemRef ItemOID="EX.EXLOT"
      OrderNumber="21"
      Mandatory="No"
      Role="Record Qualifier"
      RoleCodeListOID="RoleCodeList">
    </ItemRef>
    <ItemRef ItemOID="EX.EXLOC"
      OrderNumber="22"
      Mandatory="No"
      Role="Record Qualifier"
      RoleCodeListOID="RoleCodeList">
    </ItemRef>
    <ItemRef ItemOID="EX.EXTRTV"
      OrderNumber="23"
      Mandatory="No"
      Role="Record Qualifier"
      RoleCodeListOID="RoleCodeList">
    </ItemRef>
    <ItemRef ItemOID="EX.EXVAMT"
      OrderNumber="24"
      Mandatory="No"
      Role="Variable Qualifier"
      RoleCodeListOID="RoleCodeList">
    </ItemRef>
    <ItemRef ItemOID="EX.EXVAMTU"
      OrderNumber="25"
      Mandatory="No"
      Role="Variable Qualifier"
      RoleCodeListOID="RoleCodeList">
    </ItemRef>
    <ItemRef ItemOID="EX.EXADJ"
      OrderNumber="26"
      Mandatory="No"
      Role="Record Qualifier"
      RoleCodeListOID="RoleCodeList">
    </ItemRef>
    <ItemRef ItemOID="EX.VISITNUM"
      OrderNumber="27"
      Mandatory="Yes"
      Role="Timing"
      RoleCodeListOID="RoleCodeList">
    </ItemRef>
    <ItemRef ItemOID="EX.VISIT"
      OrderNumber="28"
      Mandatory="No"
      Role="Timing"
      RoleCodeListOID="RoleCodeList">
    </ItemRef>
    <ItemRef ItemOID="EX.TAETORD"
      OrderNumber="29"
      Mandatory="No"
      Role="Timing"
      RoleCodeListOID="RoleCodeList">
    </ItemRef>
    <ItemRef ItemOID="EX.EPOCH"
      OrderNumber="30"
      Mandatory="No"
      Role="Timing"
      RoleCodeListOID="RoleCodeList">
    </ItemRef>
    <ItemRef ItemOID="EX.EXSTDTC"
      OrderNumber="31"
      Mandatory="No"
      Role="Timing"
      RoleCodeListOID="RoleCodeList">
    </ItemRef>
    <ItemRef ItemOID="EX.EXENDTC"
      OrderNumber="32"
      Mandatory="No"
      Role="Timing"
      RoleCodeListOID="RoleCodeList">
    </ItemRef>
    <ItemRef ItemOID="EX.EXSTDY"
      OrderNumber="33"
      Mandatory="No"
      Role="Timing"
      RoleCodeListOID="RoleCodeList">
    </ItemRef>
    <ItemRef ItemOID="EX.EXENDY"
      OrderNumber="34"
      Mandatory="No"
      Role="Timing"
      RoleCodeListOID="RoleCodeList">
    </ItemRef>
    <ItemRef ItemOID="EX.EXDUR"
      OrderNumber="35"
      Mandatory="No"
      Role="Timing"
      RoleCodeListOID="RoleCodeList">
    </ItemRef>
    <ItemRef ItemOID="EX.EXTPT"
      OrderNumber="36"
      Mandatory="No"
      Role="Timing"
      RoleCodeListOID="RoleCodeList">
    </ItemRef>
    <ItemRef ItemOID="EX.EXTPTNUM"
      OrderNumber="37"
      Mandatory="No"
      Role="Timing"
      RoleCodeListOID="RoleCodeList">
    </ItemRef>
    <ItemRef ItemOID="EX.EXELTM"
      OrderNumber="38"
      Mandatory="No"
      Role="Timing"
      RoleCodeListOID="RoleCodeList">
    </ItemRef>
    <ItemRef ItemOID="EX.EXTPTREF"
      OrderNumber="39"
      Mandatory="No"
      Role="Timing"
      RoleCodeListOID="RoleCodeList">
    </ItemRef>
    <ItemRef ItemOID="EX.EXRFTDTC"
      OrderNumber="40"
      Mandatory="No"
      Role="Timing"
      RoleCodeListOID="RoleCodeList">
    </ItemRef>
    <def:leaf ID="ArchiveLocation.EX"
      xlink:href="ex.xpt">
      <def:title>ex.xpt</def:title>
    </def:leaf>
</ItemGroupDef>
  <ItemGroupDef OID="SU"
    Name="SU"
    Repeating="Yes"
    IsReferenceData="No"
    Purpose="Tabulation"
    def:Label="Substance Use"
    def:Structure="One record per substance type per reported occurrence per subject"
    def:DomainKeys="STUDYID, USUBJID, SUCAT, SUSCAT, SUTRT"
    def:Class="Interventions"
    def:ArchiveLocationID="ArchiveLocation.SU">
    <ItemRef ItemOID="SU.STUDYID"
      OrderNumber="1"
      Mandatory="Yes"
      Role="Identifier"
      RoleCodeListOID="RoleCodeList">
    </ItemRef>
    <ItemRef ItemOID="SU.DOMAIN"
      OrderNumber="2"
      Mandatory="Yes"
      Role="Identifier"
      RoleCodeListOID="RoleCodeList">
    </ItemRef>
    <ItemRef ItemOID="SU.USUBJID"
      OrderNumber="3"
      Mandatory="Yes"
      Role="Identifier"
      RoleCodeListOID="RoleCodeList">
    </ItemRef>
    <ItemRef ItemOID="SU.SUSEQ"
      OrderNumber="4"
      Mandatory="Yes"
      Role="Identifier"
      RoleCodeListOID="RoleCodeList">
    </ItemRef>
    <ItemRef ItemOID="SU.SUGRPID"
      OrderNumber="5"
      Mandatory="No"
      Role="Identifier"
      RoleCodeListOID="RoleCodeList">
    </ItemRef>
    <ItemRef ItemOID="SU.SUSPID"
      OrderNumber="6"
      Mandatory="No"
      Role="Identifier"
      RoleCodeListOID="RoleCodeList">
    </ItemRef>
    <ItemRef ItemOID="SU.SUTRT"
      OrderNumber="7"
      Mandatory="Yes"
      Role="Topic"
      RoleCodeListOID="RoleCodeList">
    </ItemRef>
    <ItemRef ItemOID="SU.SUCAT"
      OrderNumber="8"
      Mandatory="No"
      Role="Grouping Qualifier"
      RoleCodeListOID="RoleCodeList">
    </ItemRef>
    <ItemRef ItemOID="SU.SUSCAT"
      OrderNumber="9"
      Mandatory="No"
      Role="Grouping Qualifier"
      RoleCodeListOID="RoleCodeList">
    </ItemRef>
    <ItemRef ItemOID="SU.SUPRESP"
      OrderNumber="10"
      Mandatory="No"
      Role="Record Qualifier"
      RoleCodeListOID="RoleCodeList">
    </ItemRef>
    <ItemRef ItemOID="SU.SUOCCUR"
      OrderNumber="11"
      Mandatory="No"
      Role="Record Qualifier"
      RoleCodeListOID="RoleCodeList">
    </ItemRef>
    <ItemRef ItemOID="SU.SUSTAT"
      OrderNumber="12"
      Mandatory="No"
      Role="Record Qualifier"
      RoleCodeListOID="RoleCodeList">
    </ItemRef>
    <ItemRef ItemOID="SU.SUREASND"
      OrderNumber="13"
      Mandatory="No"
      Role="Record Qualifier"
      RoleCodeListOID="RoleCodeList">
    </ItemRef>
    <ItemRef ItemOID="SU.SUDOSE"
      OrderNumber="14"
      Mandatory="No"
      Role="Record Qualifier"
      RoleCodeListOID="RoleCodeList">
    </ItemRef>
    <ItemRef ItemOID="SU.SUDOSTXT"
      OrderNumber="15"
      Mandatory="No"
      Role="Record Qualifier"
      RoleCodeListOID="RoleCodeList">
    </ItemRef>
    <ItemRef ItemOID="SU.SUDOSU"
      OrderNumber="16"
      Mandatory="No"
      Role="Variable Qualifier"
      RoleCodeListOID="RoleCodeList">
    </ItemRef>
    <ItemRef ItemOID="SU.SUDOSFRM"
      OrderNumber="17"
      Mandatory="No"
      Role="Record Qualifier"
      RoleCodeListOID="RoleCodeList">
    </ItemRef>
    <ItemRef ItemOID="SU.SUDOSFRQ"
      OrderNumber="18"
      Mandatory="No"
      Role="Variable Qualifier"
      RoleCodeListOID="RoleCodeList">
    </ItemRef>
    <ItemRef ItemOID="SU.SUDOSTOT"
      OrderNumber="19"
      Mandatory="No"
      Role="Record Qualifier"
      RoleCodeListOID="RoleCodeList">
    </ItemRef>
    <ItemRef ItemOID="SU.SUROUTE"
      OrderNumber="20"
      Mandatory="No"
      Role="Variable Qualifier"
      RoleCodeListOID="RoleCodeList">
    </ItemRef>
    <ItemRef ItemOID="SU.VISITNUM"
      OrderNumber="21"
      Mandatory="Yes"
      Role="Timing"
      RoleCodeListOID="RoleCodeList">
    </ItemRef>
    <ItemRef ItemOID="SU.VISIT"
      OrderNumber="22"
      Mandatory="No"
      Role="Timing"
      RoleCodeListOID="RoleCodeList">
    </ItemRef>
    <ItemRef ItemOID="SU.EPOCH"
      OrderNumber="23"
      Mandatory="No"
      Role="Timing"
      RoleCodeListOID="RoleCodeList">
    </ItemRef>
    <ItemRef ItemOID="SU.SUSTDTC"
      OrderNumber="24"
      Mandatory="No"
      Role="Timing"
      RoleCodeListOID="RoleCodeList">
    </ItemRef>
    <ItemRef ItemOID="SU.SUENDTC"
      OrderNumber="25"
      Mandatory="No"
      Role="Timing"
      RoleCodeListOID="RoleCodeList">
    </ItemRef>
    <ItemRef ItemOID="SU.SUSTDY"
      OrderNumber="26"
      Mandatory="No"
      Role="Timing"
      RoleCodeListOID="RoleCodeList">
    </ItemRef>
    <ItemRef ItemOID="SU.SUENDY"
      OrderNumber="27"
      Mandatory="No"
      Role="Timing"
      RoleCodeListOID="RoleCodeList">
    </ItemRef>
    <ItemRef ItemOID="SU.SUDUR"
      OrderNumber="28"
      Mandatory="No"
      Role="Timing"
      RoleCodeListOID="RoleCodeList">
    </ItemRef>
    <ItemRef ItemOID="SU.SUSTRF"
      OrderNumber="29"
      Mandatory="No"
      Role="Timing"
      RoleCodeListOID="RoleCodeList">
    </ItemRef>
    <ItemRef ItemOID="SU.SUENRF"
      OrderNumber="30"
      Mandatory="No"
      Role="Timing"
      RoleCodeListOID="RoleCodeList">
    </ItemRef>
    <ItemRef ItemOID="SU.SUENRTPT"
      OrderNumber="31"
      Mandatory="No"
      Role="Timing"
      RoleCodeListOID="RoleCodeList">
    </ItemRef>
    <ItemRef ItemOID="SU.SUENTPT"
      OrderNumber="32"
      Mandatory="No"
      Role="Timing"
      RoleCodeListOID="RoleCodeList">
    </ItemRef>
    <def:leaf ID="ArchiveLocation.SU"
      xlink:href="su.xpt">
      <def:title>su.xpt</def:title>
    </def:leaf>
</ItemGroupDef>
  <ItemGroupDef OID="AE"
    Name="AE"
    Repeating="Yes"
    IsReferenceData="No"
    Purpose="Tabulation"
    def:Label="Adverse Events"
    def:Structure="One record per adverse event per subject"
    def:DomainKeys="STUDYID, USUBJID, AEDECOD, AESTDTC, AETERM,  AESEV"
    def:Class="Events"
    def:ArchiveLocationID="ArchiveLocation.AE">
    <ItemRef ItemOID="AE.STUDYID"
      OrderNumber="1"
      Mandatory="Yes"
      Role="Identifier"
      RoleCodeListOID="RoleCodeList">
    </ItemRef>
    <ItemRef ItemOID="AE.DOMAIN"
      OrderNumber="2"
      Mandatory="Yes"
      Role="Identifier"
      RoleCodeListOID="RoleCodeList">
    </ItemRef>
    <ItemRef ItemOID="AE.USUBJID"
      OrderNumber="3"
      Mandatory="Yes"
      Role="Identifier"
      RoleCodeListOID="RoleCodeList">
    </ItemRef>
    <ItemRef ItemOID="AE.AESEQ"
      OrderNumber="4"
      Mandatory="Yes"
      Role="Identifier"
      RoleCodeListOID="RoleCodeList">
    </ItemRef>
    <ItemRef ItemOID="AE.AEGRPID"
      OrderNumber="5"
      Mandatory="No"
      Role="Identifier"
      RoleCodeListOID="RoleCodeList">
    </ItemRef>
    <ItemRef ItemOID="AE.AEREFID"
      OrderNumber="6"
      Mandatory="No"
      Role="Identifier"
      RoleCodeListOID="RoleCodeList">
    </ItemRef>
    <ItemRef ItemOID="AE.AESPID"
      OrderNumber="7"
      Mandatory="No"
      Role="Identifier"
      RoleCodeListOID="RoleCodeList">
    </ItemRef>
    <ItemRef ItemOID="AE.AETERM"
      OrderNumber="8"
      Mandatory="Yes"
      Role="Topic"
      RoleCodeListOID="RoleCodeList">
    </ItemRef>
    <ItemRef ItemOID="AE.AEMODIFY"
      OrderNumber="9"
      Mandatory="No"
      Role="Synonym Qualifier"
      RoleCodeListOID="RoleCodeList">
    </ItemRef>
    <ItemRef ItemOID="AE.AELLT"
      OrderNumber="10"
      Mandatory="No"
      Role="Variable Qualifier"
      RoleCodeListOID="RoleCodeList">
    </ItemRef>
    <ItemRef ItemOID="AE.AELLTCD"
      OrderNumber="11"
      Mandatory="No"
      Role="Variable Qualifier"
      RoleCodeListOID="RoleCodeList">
    </ItemRef>
    <ItemRef ItemOID="AE.AEDECOD"
      OrderNumber="12"
      Mandatory="Yes"
      Role="Synonym Qualifier"
      RoleCodeListOID="RoleCodeList">
    </ItemRef>
    <ItemRef ItemOID="AE.AEPTCD"
      OrderNumber="13"
      Mandatory="No"
      Role="Variable Qualifier"
      RoleCodeListOID="RoleCodeList">
    </ItemRef>
    <ItemRef ItemOID="AE.AEHLT"
      OrderNumber="14"
      Mandatory="No"
      Role="Variable Qualifier"
      RoleCodeListOID="RoleCodeList">
    </ItemRef>
    <ItemRef ItemOID="AE.AEHLTCD"
      OrderNumber="15"
      Mandatory="No"
      Role="Variable Qualifier"
      RoleCodeListOID="RoleCodeList">
    </ItemRef>
    <ItemRef ItemOID="AE.AEHLGT"
      OrderNumber="16"
      Mandatory="No"
      Role="Variable Qualifier"
      RoleCodeListOID="RoleCodeList">
    </ItemRef>
    <ItemRef ItemOID="AE.AEHLGTCD"
      OrderNumber="17"
      Mandatory="No"
      Role="Variable Qualifier"
      RoleCodeListOID="RoleCodeList">
    </ItemRef>
    <ItemRef ItemOID="AE.AECAT"
      OrderNumber="18"
      Mandatory="No"
      Role="Grouping Qualifier"
      RoleCodeListOID="RoleCodeList">
    </ItemRef>
    <ItemRef ItemOID="AE.AESCAT"
      OrderNumber="19"
      Mandatory="No"
      Role="Grouping Qualifier"
      RoleCodeListOID="RoleCodeList">
    </ItemRef>
    <ItemRef ItemOID="AE.AEPRESP"
      OrderNumber="20"
      Mandatory="No"
      Role="Record Qualifier"
      RoleCodeListOID="RoleCodeList">
    </ItemRef>
    <ItemRef ItemOID="AE.AEBODSYS"
      OrderNumber="21"
      Mandatory="No"
      Role="Record Qualifier"
      RoleCodeListOID="RoleCodeList">
    </ItemRef>
    <ItemRef ItemOID="AE.AEBDSYCD"
      OrderNumber="22"
      Mandatory="No"
      Role="Variable Qualifier"
      RoleCodeListOID="RoleCodeList">
    </ItemRef>
    <ItemRef ItemOID="AE.AESOC"
      OrderNumber="23"
      Mandatory="No"
      Role="Variable Qualifier"
      RoleCodeListOID="RoleCodeList">
    </ItemRef>
    <ItemRef ItemOID="AE.AESOCCD"
      OrderNumber="24"
      Mandatory="No"
      Role="Variable Qualifier"
      RoleCodeListOID="RoleCodeList">
    </ItemRef>
    <ItemRef ItemOID="AE.AELOC"
      OrderNumber="25"
      Mandatory="No"
      Role="Record Qualifier"
      RoleCodeListOID="RoleCodeList">
    </ItemRef>
    <ItemRef ItemOID="AE.AESEV"
      OrderNumber="26"
      Mandatory="No"
      Role="Record Qualifier"
      RoleCodeListOID="RoleCodeList">
    </ItemRef>
    <ItemRef ItemOID="AE.AESER"
      OrderNumber="27"
      Mandatory="No"
      Role="Record Qualifier"
      RoleCodeListOID="RoleCodeList">
    </ItemRef>
    <ItemRef ItemOID="AE.AEACN"
      OrderNumber="28"
      Mandatory="No"
      Role="Record Qualifier"
      RoleCodeListOID="RoleCodeList">
    </ItemRef>
    <ItemRef ItemOID="AE.AEACNOTH"
      OrderNumber="29"
      Mandatory="No"
      Role="Record Qualifier"
      RoleCodeListOID="RoleCodeList">
    </ItemRef>
    <ItemRef ItemOID="AE.AEREL"
      OrderNumber="30"
      Mandatory="No"
      Role="Record Qualifier"
      RoleCodeListOID="RoleCodeList">
    </ItemRef>
    <ItemRef ItemOID="AE.AERELNST"
      OrderNumber="31"
      Mandatory="No"
      Role="Record Qualifier"
      RoleCodeListOID="RoleCodeList">
    </ItemRef>
    <ItemRef ItemOID="AE.AEPATT"
      OrderNumber="32"
      Mandatory="No"
      Role="Record Qualifier"
      RoleCodeListOID="RoleCodeList">
    </ItemRef>
    <ItemRef ItemOID="AE.AEOUT"
      OrderNumber="33"
      Mandatory="No"
      Role="Record Qualifier"
      RoleCodeListOID="RoleCodeList">
    </ItemRef>
    <ItemRef ItemOID="AE.AESCONG"
      OrderNumber="34"
      Mandatory="No"
      Role="Record Qualifier"
      RoleCodeListOID="RoleCodeList">
    </ItemRef>
    <ItemRef ItemOID="AE.AESDISAB"
      OrderNumber="35"
      Mandatory="No"
      Role="Record Qualifier"
      RoleCodeListOID="RoleCodeList">
    </ItemRef>
    <ItemRef ItemOID="AE.AESDTH"
      OrderNumber="36"
      Mandatory="No"
      Role="Record Qualifier"
      RoleCodeListOID="RoleCodeList">
    </ItemRef>
    <ItemRef ItemOID="AE.AESHOSP"
      OrderNumber="37"
      Mandatory="No"
      Role="Record Qualifier"
      RoleCodeListOID="RoleCodeList">
    </ItemRef>
    <ItemRef ItemOID="AE.AESLIFE"
      OrderNumber="38"
      Mandatory="No"
      Role="Record Qualifier"
      RoleCodeListOID="RoleCodeList">
    </ItemRef>
    <ItemRef ItemOID="AE.AESMIE"
      OrderNumber="39"
      Mandatory="No"
      Role="Record Qualifier"
      RoleCodeListOID="RoleCodeList">
    </ItemRef>
    <ItemRef ItemOID="AE.AECONTRT"
      OrderNumber="40"
      Mandatory="No"
      Role="Record Qualifier"
      RoleCodeListOID="RoleCodeList">
    </ItemRef>
    <ItemRef ItemOID="AE.AETOXGR"
      OrderNumber="41"
      Mandatory="No"
      Role="Record Qualifier"
      RoleCodeListOID="RoleCodeList">
    </ItemRef>
    <ItemRef ItemOID="AE.VISITNUM"
      OrderNumber="42"
      Mandatory="No"
      Role="Timing"
      RoleCodeListOID="RoleCodeList">
    </ItemRef>
    <ItemRef ItemOID="AE.VISIT"
      OrderNumber="43"
      Mandatory="No"
      Role="Timing"
      RoleCodeListOID="RoleCodeList">
    </ItemRef>
    <ItemRef ItemOID="AE.EPOCH"
      OrderNumber="44"
      Mandatory="No"
      Role="Timing"
      RoleCodeListOID="RoleCodeList">
    </ItemRef>
    <ItemRef ItemOID="AE.AESTDTC"
      OrderNumber="45"
      Mandatory="No"
      Role="Timing"
      RoleCodeListOID="RoleCodeList">
    </ItemRef>
    <ItemRef ItemOID="AE.AEENDTC"
      OrderNumber="46"
      Mandatory="No"
      Role="Timing"
      RoleCodeListOID="RoleCodeList">
    </ItemRef>
    <ItemRef ItemOID="AE.AESTDY"
      OrderNumber="47"
      Mandatory="No"
      Role="Timing"
      RoleCodeListOID="RoleCodeList">
    </ItemRef>
    <ItemRef ItemOID="AE.AEENDY"
      OrderNumber="48"
      Mandatory="No"
      Role="Timing"
      RoleCodeListOID="RoleCodeList">
    </ItemRef>
    <ItemRef ItemOID="AE.AEDUR"
      OrderNumber="49"
      Mandatory="No"
      Role="Timing"
      RoleCodeListOID="RoleCodeList">
    </ItemRef>
    <ItemRef ItemOID="AE.AEENRF"
      OrderNumber="50"
      Mandatory="No"
      Role="Timing"
      RoleCodeListOID="RoleCodeList">
    </ItemRef>
    <def:leaf ID="ArchiveLocation.AE"
      xlink:href="ae.xpt">
      <def:title>ae.xpt</def:title>
    </def:leaf>
</ItemGroupDef>
  <ItemGroupDef OID="DS"
    Name="DS"
    Repeating="Yes"
    IsReferenceData="No"
    Purpose="Tabulation"
    def:Label="Disposition"
    def:Structure="One record per disposition status or protocol milestone per subject"
    def:DomainKeys="STUDYID, USUBJID, DSDECOD, DSSTDTC, DSTERM, DSCAT, DSSCAT"
    def:Class="Events"
    def:ArchiveLocationID="ArchiveLocation.DS">
    <ItemRef ItemOID="DS.STUDYID"
      OrderNumber="1"
      Mandatory="Yes"
      Role="Identifier"
      RoleCodeListOID="RoleCodeList">
    </ItemRef>
    <ItemRef ItemOID="DS.DOMAIN"
      OrderNumber="2"
      Mandatory="Yes"
      Role="Identifier"
      RoleCodeListOID="RoleCodeList">
    </ItemRef>
    <ItemRef ItemOID="DS.USUBJID"
      OrderNumber="3"
      Mandatory="Yes"
      Role="Identifier"
      RoleCodeListOID="RoleCodeList">
    </ItemRef>
    <ItemRef ItemOID="DS.DSSEQ"
      OrderNumber="4"
      Mandatory="Yes"
      Role="Identifier"
      RoleCodeListOID="RoleCodeList">
    </ItemRef>
    <ItemRef ItemOID="DS.DSGRPID"
      OrderNumber="5"
      Mandatory="No"
      Role="Identifier"
      RoleCodeListOID="RoleCodeList">
    </ItemRef>
    <ItemRef ItemOID="DS.DSREFID"
      OrderNumber="6"
      Mandatory="No"
      Role="Identifier"
      RoleCodeListOID="RoleCodeList">
    </ItemRef>
    <ItemRef ItemOID="DS.DSSPID"
      OrderNumber="7"
      Mandatory="No"
      Role="Identifier"
      RoleCodeListOID="RoleCodeList">
    </ItemRef>
    <ItemRef ItemOID="DS.DSTERM"
      OrderNumber="8"
      Mandatory="Yes"
      Role="Topic"
      RoleCodeListOID="RoleCodeList">
    </ItemRef>
    <ItemRef ItemOID="DS.DSDECOD"
      OrderNumber="9"
      Mandatory="Yes"
      Role="Synonym Qualifier"
      RoleCodeListOID="RoleCodeList">
    </ItemRef>
    <ItemRef ItemOID="DS.DSCAT"
      OrderNumber="10"
      Mandatory="No"
      Role="Grouping Qualifier"
      RoleCodeListOID="RoleCodeList">
    </ItemRef>
    <ItemRef ItemOID="DS.DSSCAT"
      OrderNumber="11"
      Mandatory="No"
      Role="Grouping Qualifier"
      RoleCodeListOID="RoleCodeList">
    </ItemRef>
    <ItemRef ItemOID="DS.VISITNUM"
      OrderNumber="12"
      Mandatory="No"
      Role="Timing"
      RoleCodeListOID="RoleCodeList">
    </ItemRef>
    <ItemRef ItemOID="DS.VISIT"
      OrderNumber="13"
      Mandatory="No"
      Role="Timing"
      RoleCodeListOID="RoleCodeList">
    </ItemRef>
    <ItemRef ItemOID="DS.EPOCH"
      OrderNumber="14"
      Mandatory="No"
      Role="Timing"
      RoleCodeListOID="RoleCodeList">
    </ItemRef>
    <ItemRef ItemOID="DS.DSDTC"
      OrderNumber="15"
      Mandatory="No"
      Role="Timing"
      RoleCodeListOID="RoleCodeList">
    </ItemRef>
    <ItemRef ItemOID="DS.DSSTDTC"
      OrderNumber="16"
      Mandatory="No"
      Role="Timing"
      RoleCodeListOID="RoleCodeList">
    </ItemRef>
    <ItemRef ItemOID="DS.DSSTDY"
      OrderNumber="17"
      Mandatory="No"
      Role="Timing"
      RoleCodeListOID="RoleCodeList">
    </ItemRef>
    <def:leaf ID="ArchiveLocation.DS"
      xlink:href="ds.xpt">
      <def:title>ds.xpt</def:title>
    </def:leaf>
</ItemGroupDef>
  <ItemGroupDef OID="MH"
    Name="MH"
    Repeating="Yes"
    IsReferenceData="No"
    Purpose="Tabulation"
    def:Label="Medical History"
    def:Structure="One record per medical history event per subject"
    def:DomainKeys="STUDYID, USUBJID, MHTERM, MHLLTCD, MHSTDTC, MHENDTC, MHGRPID"
    def:Class="Events"
    def:ArchiveLocationID="ArchiveLocation.MH">
    <ItemRef ItemOID="MH.STUDYID"
      OrderNumber="1"
      Mandatory="Yes"
      Role="Identifier"
      RoleCodeListOID="RoleCodeList">
    </ItemRef>
    <ItemRef ItemOID="MH.DOMAIN"
      OrderNumber="2"
      Mandatory="Yes"
      Role="Identifier"
      RoleCodeListOID="RoleCodeList">
    </ItemRef>
    <ItemRef ItemOID="MH.USUBJID"
      OrderNumber="3"
      Mandatory="Yes"
      Role="Identifier"
      RoleCodeListOID="RoleCodeList">
    </ItemRef>
    <ItemRef ItemOID="MH.MHSEQ"
      OrderNumber="4"
      Mandatory="Yes"
      Role="Identifier"
      RoleCodeListOID="RoleCodeList">
    </ItemRef>
    <ItemRef ItemOID="MH.MHGRPID"
      OrderNumber="5"
      Mandatory="No"
      Role="Identifier"
      RoleCodeListOID="RoleCodeList">
    </ItemRef>
    <ItemRef ItemOID="MH.MHREFID"
      OrderNumber="6"
      Mandatory="No"
      Role="Identifier"
      RoleCodeListOID="RoleCodeList">
    </ItemRef>
    <ItemRef ItemOID="MH.MHSPID"
      OrderNumber="7"
      Mandatory="No"
      Role="Identifier"
      RoleCodeListOID="RoleCodeList">
    </ItemRef>
    <ItemRef ItemOID="MH.MHTERM"
      OrderNumber="8"
      Mandatory="Yes"
      Role="Topic"
      RoleCodeListOID="RoleCodeList">
    </ItemRef>
    <ItemRef ItemOID="MH.MHMODIFY"
      OrderNumber="9"
      Mandatory="No"
      Role="Synonym Qualifier"
      RoleCodeListOID="RoleCodeList">
    </ItemRef>
    <ItemRef ItemOID="MH.MHLLT"
      OrderNumber="10"
      Mandatory="No"
      Role="Variable Qualifier"
      RoleCodeListOID="RoleCodeList">
    </ItemRef>
    <ItemRef ItemOID="MH.MHLLTCD"
      OrderNumber="11"
      Mandatory="No"
      Role="Variable Qualifier"
      RoleCodeListOID="RoleCodeList">
    </ItemRef>
    <ItemRef ItemOID="MH.MHDECOD"
      OrderNumber="12"
      Mandatory="No"
      Role="Synonym Qualifier"
      RoleCodeListOID="RoleCodeList">
    </ItemRef>
    <ItemRef ItemOID="MH.MHPTCD"
      OrderNumber="13"
      Mandatory="No"
      Role="Variable Qualifier"
      RoleCodeListOID="RoleCodeList">
    </ItemRef>
    <ItemRef ItemOID="MH.MHHLT"
      OrderNumber="14"
      Mandatory="No"
      Role="Variable Qualifier"
      RoleCodeListOID="RoleCodeList">
    </ItemRef>
    <ItemRef ItemOID="MH.MHHLTCD"
      OrderNumber="15"
      Mandatory="No"
      Role="Variable Qualifier"
      RoleCodeListOID="RoleCodeList">
    </ItemRef>
    <ItemRef ItemOID="MH.MHHLGT"
      OrderNumber="16"
      Mandatory="No"
      Role="Variable Qualifier"
      RoleCodeListOID="RoleCodeList">
    </ItemRef>
    <ItemRef ItemOID="MH.MHHLGTCD"
      OrderNumber="17"
      Mandatory="No"
      Role="Variable Qualifier"
      RoleCodeListOID="RoleCodeList">
    </ItemRef>
    <ItemRef ItemOID="MH.MHCAT"
      OrderNumber="18"
      Mandatory="No"
      Role="Grouping Qualifier"
      RoleCodeListOID="RoleCodeList">
    </ItemRef>
    <ItemRef ItemOID="MH.MHSCAT"
      OrderNumber="19"
      Mandatory="No"
      Role="Grouping Qualifier"
      RoleCodeListOID="RoleCodeList">
    </ItemRef>
    <ItemRef ItemOID="MH.MHPRESP"
      OrderNumber="20"
      Mandatory="No"
      Role="Record Qualifier"
      RoleCodeListOID="RoleCodeList">
    </ItemRef>
    <ItemRef ItemOID="MH.MHOCCUR"
      OrderNumber="21"
      Mandatory="No"
      Role="Record Qualifier"
      RoleCodeListOID="RoleCodeList">
    </ItemRef>
    <ItemRef ItemOID="MH.MHSTAT"
      OrderNumber="22"
      Mandatory="No"
      Role="Record Qualifier"
      RoleCodeListOID="RoleCodeList">
    </ItemRef>
    <ItemRef ItemOID="MH.MHREASND"
      OrderNumber="23"
      Mandatory="No"
      Role="Record Qualifier"
      RoleCodeListOID="RoleCodeList">
    </ItemRef>
    <ItemRef ItemOID="MH.MHBODSYS"
      OrderNumber="24"
      Mandatory="No"
      Role="Record Qualifier"
      RoleCodeListOID="RoleCodeList">
    </ItemRef>
    <ItemRef ItemOID="MH.MHBDSYCD"
      OrderNumber="25"
      Mandatory="No"
      Role="Variable Qualifier"
      RoleCodeListOID="RoleCodeList">
    </ItemRef>
    <ItemRef ItemOID="MH.MHSOC"
      OrderNumber="26"
      Mandatory="No"
      Role="Variable Qualifier"
      RoleCodeListOID="RoleCodeList">
    </ItemRef>
    <ItemRef ItemOID="MH.MHSOCCD"
      OrderNumber="27"
      Mandatory="No"
      Role="Variable Qualifier"
      RoleCodeListOID="RoleCodeList">
    </ItemRef>
    <ItemRef ItemOID="MH.MHSEV"
      OrderNumber="28"
      Mandatory="No"
      Role="Record Qualifier"
      RoleCodeListOID="RoleCodeList">
    </ItemRef>
    <ItemRef ItemOID="MH.MHSER"
      OrderNumber="29"
      Mandatory="No"
      Role="Record Qualifier"
      RoleCodeListOID="RoleCodeList">
    </ItemRef>
    <ItemRef ItemOID="MH.MHREL"
      OrderNumber="30"
      Mandatory="No"
      Role="Record Qualifier"
      RoleCodeListOID="RoleCodeList">
    </ItemRef>
    <ItemRef ItemOID="MH.MHRELNST"
      OrderNumber="31"
      Mandatory="No"
      Role="Record Qualifier"
      RoleCodeListOID="RoleCodeList">
    </ItemRef>
    <ItemRef ItemOID="MH.MHOUT"
      OrderNumber="32"
      Mandatory="No"
      Role="Record Qualifier"
      RoleCodeListOID="RoleCodeList">
    </ItemRef>
    <ItemRef ItemOID="MH.MHSCONG"
      OrderNumber="33"
      Mandatory="No"
      Role="Record Qualifier"
      RoleCodeListOID="RoleCodeList">
    </ItemRef>
    <ItemRef ItemOID="MH.MHSDISAB"
      OrderNumber="34"
      Mandatory="No"
      Role="Record Qualifier"
      RoleCodeListOID="RoleCodeList">
    </ItemRef>
    <ItemRef ItemOID="MH.MHSDTH"
      OrderNumber="35"
      Mandatory="No"
      Role="Record Qualifier"
      RoleCodeListOID="RoleCodeList">
    </ItemRef>
    <ItemRef ItemOID="MH.MHSHOSP"
      OrderNumber="36"
      Mandatory="No"
      Role="Record Qualifier"
      RoleCodeListOID="RoleCodeList">
    </ItemRef>
    <ItemRef ItemOID="MH.MHSLIFE"
      OrderNumber="37"
      Mandatory="No"
      Role="Record Qualifier"
      RoleCodeListOID="RoleCodeList">
    </ItemRef>
    <ItemRef ItemOID="MH.MHSMIE"
      OrderNumber="38"
      Mandatory="No"
      Role="Record Qualifier"
      RoleCodeListOID="RoleCodeList">
    </ItemRef>
    <ItemRef ItemOID="MH.MHTOXGR"
      OrderNumber="39"
      Mandatory="No"
      Role="Record Qualifier"
      RoleCodeListOID="RoleCodeList">
    </ItemRef>
    <ItemRef ItemOID="MH.VISITNUM"
      OrderNumber="40"
      Mandatory="No"
      Role="Timing"
      RoleCodeListOID="RoleCodeList">
    </ItemRef>
    <ItemRef ItemOID="MH.VISIT"
      OrderNumber="41"
      Mandatory="No"
      Role="Timing"
      RoleCodeListOID="RoleCodeList">
    </ItemRef>
    <ItemRef ItemOID="MH.EPOCH"
      OrderNumber="42"
      Mandatory="No"
      Role="Timing"
      RoleCodeListOID="RoleCodeList">
    </ItemRef>
    <ItemRef ItemOID="MH.MHDTC"
      OrderNumber="43"
      Mandatory="No"
      Role="Timing"
      RoleCodeListOID="RoleCodeList">
    </ItemRef>
    <ItemRef ItemOID="MH.MHSTDTC"
      OrderNumber="44"
      Mandatory="No"
      Role="Timing"
      RoleCodeListOID="RoleCodeList">
    </ItemRef>
    <ItemRef ItemOID="MH.MHENDTC"
      OrderNumber="45"
      Mandatory="No"
      Role="Timing"
      RoleCodeListOID="RoleCodeList">
    </ItemRef>
    <ItemRef ItemOID="MH.MHDY"
      OrderNumber="46"
      Mandatory="No"
      Role="Timing"
      RoleCodeListOID="RoleCodeList">
    </ItemRef>
    <ItemRef ItemOID="MH.MHSTDY"
      OrderNumber="47"
      Mandatory="No"
      Role="Timing"
      RoleCodeListOID="RoleCodeList">
    </ItemRef>
    <ItemRef ItemOID="MH.MHENDY"
      OrderNumber="48"
      Mandatory="No"
      Role="Timing"
      RoleCodeListOID="RoleCodeList">
    </ItemRef>
    <ItemRef ItemOID="MH.MHENRF"
      OrderNumber="49"
      Mandatory="No"
      Role="Timing"
      RoleCodeListOID="RoleCodeList">
    </ItemRef>
    <def:leaf ID="ArchiveLocation.MH"
      xlink:href="mh.xpt">
      <def:title>mh.xpt</def:title>
    </def:leaf>
</ItemGroupDef>
  <ItemGroupDef OID="DA"
    Name="DA"
    Repeating="Yes"
    IsReferenceData="No"
    Purpose="Tabulation"
    def:Label="Drug Accountability"
    def:Structure="One record per drug accountability finding per subject"
    def:DomainKeys="STUDYID, USUBJID, DATESTCD, DADTC, VISITNUM, DAREFID"
    def:Class="Findings"
    def:ArchiveLocationID="ArchiveLocation.DA">
    <ItemRef ItemOID="DA.STUDYID"
      OrderNumber="1"
      Mandatory="Yes"
      Role="Identifier"
      RoleCodeListOID="RoleCodeList">
    </ItemRef>
    <ItemRef ItemOID="DA.DOMAIN"
      OrderNumber="2"
      Mandatory="Yes"
      Role="Identifier"
      RoleCodeListOID="RoleCodeList">
    </ItemRef>
    <ItemRef ItemOID="DA.USUBJID"
      OrderNumber="3"
      Mandatory="Yes"
      Role="Identifier"
      RoleCodeListOID="RoleCodeList">
    </ItemRef>
    <ItemRef ItemOID="DA.DASEQ"
      OrderNumber="4"
      Mandatory="Yes"
      Role="Identifier"
      RoleCodeListOID="RoleCodeList">
    </ItemRef>
    <ItemRef ItemOID="DA.DAGRPID"
      OrderNumber="5"
      Mandatory="No"
      Role="Identifier"
      RoleCodeListOID="RoleCodeList">
    </ItemRef>
    <ItemRef ItemOID="DA.DAREFID"
      OrderNumber="6"
      Mandatory="No"
      Role="Identifier"
      RoleCodeListOID="RoleCodeList">
    </ItemRef>
    <ItemRef ItemOID="DA.DASPID"
      OrderNumber="7"
      Mandatory="No"
      Role="Identifier"
      RoleCodeListOID="RoleCodeList">
    </ItemRef>
    <ItemRef ItemOID="DA.DATESTCD"
      OrderNumber="8"
      Mandatory="Yes"
      Role="Topic"
      RoleCodeListOID="RoleCodeList">
    </ItemRef>
    <ItemRef ItemOID="DA.DATEST"
      OrderNumber="9"
      Mandatory="Yes"
      Role="Synonym Qualifier"
      RoleCodeListOID="RoleCodeList">
    </ItemRef>
    <ItemRef ItemOID="DA.DACAT"
      OrderNumber="10"
      Mandatory="No"
      Role="Grouping Qualifier"
      RoleCodeListOID="RoleCodeList">
    </ItemRef>
    <ItemRef ItemOID="DA.DASCAT"
      OrderNumber="11"
      Mandatory="No"
      Role="Grouping Qualifier"
      RoleCodeListOID="RoleCodeList">
    </ItemRef>
    <ItemRef ItemOID="DA.DAORRES"
      OrderNumber="12"
      Mandatory="No"
      Role="Result Qualifier"
      RoleCodeListOID="RoleCodeList">
    </ItemRef>
    <ItemRef ItemOID="DA.DAORRESU"
      OrderNumber="13"
      Mandatory="No"
      Role="Variable Qualifier"
      RoleCodeListOID="RoleCodeList">
    </ItemRef>
    <ItemRef ItemOID="DA.DASTRESC"
      OrderNumber="14"
      Mandatory="No"
      Role="Result Qualifier"
      RoleCodeListOID="RoleCodeList">
    </ItemRef>
    <ItemRef ItemOID="DA.DASTRESN"
      OrderNumber="15"
      Mandatory="No"
      Role="Result Qualifier"
      RoleCodeListOID="RoleCodeList">
    </ItemRef>
    <ItemRef ItemOID="DA.DASTRESU"
      OrderNumber="16"
      Mandatory="No"
      Role="Variable Qualifier"
      RoleCodeListOID="RoleCodeList">
    </ItemRef>
    <ItemRef ItemOID="DA.DASTAT"
      OrderNumber="17"
      Mandatory="No"
      Role="Record Qualifier"
      RoleCodeListOID="RoleCodeList">
    </ItemRef>
    <ItemRef ItemOID="DA.DAREASND"
      OrderNumber="18"
      Mandatory="No"
      Role="Record Qualifier"
      RoleCodeListOID="RoleCodeList">
    </ItemRef>
    <ItemRef ItemOID="DA.VISITNUM"
      OrderNumber="19"
      Mandatory="No"
      Role="Timing"
      RoleCodeListOID="RoleCodeList">
    </ItemRef>
    <ItemRef ItemOID="DA.VISIT"
      OrderNumber="20"
      Mandatory="No"
      Role="Timing"
      RoleCodeListOID="RoleCodeList">
    </ItemRef>
    <ItemRef ItemOID="DA.EPOCH"
      OrderNumber="21"
      Mandatory="No"
      Role="Timing"
      RoleCodeListOID="RoleCodeList">
    </ItemRef>
    <ItemRef ItemOID="DA.DADTC"
      OrderNumber="22"
      Mandatory="No"
      Role="Timing"
      RoleCodeListOID="RoleCodeList">
    </ItemRef>
    <ItemRef ItemOID="DA.DADY"
      OrderNumber="23"
      Mandatory="No"
      Role="Timing"
      RoleCodeListOID="RoleCodeList">
    </ItemRef>
    <def:leaf ID="ArchiveLocation.DA"
      xlink:href="da.xpt">
      <def:title>da.xpt</def:title>
    </def:leaf>
</ItemGroupDef>
  <ItemGroupDef OID="EG"
    Name="EG"
    Repeating="Yes"
    IsReferenceData="No"
    Purpose="Tabulation"
    def:Label="ECG Test Results"
    def:Structure="One record per ECG observation per time point per visit per subject"
    def:DomainKeys="STUDYID, USUBJID, EGTESTCD, VISITNUM, EGTPTREF, EGTPTNUM, EGCAT, EGDTC, EGGRPID, EGREFID, EGORRES"
    def:Class="Findings"
    def:ArchiveLocationID="ArchiveLocation.EG">
    <ItemRef ItemOID="EG.STUDYID"
      OrderNumber="1"
      Mandatory="Yes"
      Role="Identifier"
      RoleCodeListOID="RoleCodeList">
    </ItemRef>
    <ItemRef ItemOID="EG.DOMAIN"
      OrderNumber="2"
      Mandatory="Yes"
      Role="Identifier"
      RoleCodeListOID="RoleCodeList">
    </ItemRef>
    <ItemRef ItemOID="EG.USUBJID"
      OrderNumber="3"
      Mandatory="Yes"
      Role="Identifier"
      RoleCodeListOID="RoleCodeList">
    </ItemRef>
    <ItemRef ItemOID="EG.EGSEQ"
      OrderNumber="4"
      Mandatory="Yes"
      Role="Identifier"
      RoleCodeListOID="RoleCodeList">
    </ItemRef>
    <ItemRef ItemOID="EG.EGGRPID"
      OrderNumber="5"
      Mandatory="No"
      Role="Identifier"
      RoleCodeListOID="RoleCodeList">
    </ItemRef>
    <ItemRef ItemOID="EG.EGREFID"
      OrderNumber="6"
      Mandatory="No"
      Role="Identifier"
      RoleCodeListOID="RoleCodeList">
    </ItemRef>
    <ItemRef ItemOID="EG.EGSPID"
      OrderNumber="7"
      Mandatory="No"
      Role="Identifier"
      RoleCodeListOID="RoleCodeList">
    </ItemRef>
    <ItemRef ItemOID="EG.EGTESTCD"
      OrderNumber="8"
      Mandatory="Yes"
      Role="Topic"
      RoleCodeListOID="RoleCodeList">
    </ItemRef>
    <ItemRef ItemOID="EG.EGTEST"
      OrderNumber="9"
      Mandatory="Yes"
      Role="Synonym Qualifier"
      RoleCodeListOID="RoleCodeList">
    </ItemRef>
    <ItemRef ItemOID="EG.EGCAT"
      OrderNumber="10"
      Mandatory="No"
      Role="Grouping Qualifier"
      RoleCodeListOID="RoleCodeList">
    </ItemRef>
    <ItemRef ItemOID="EG.EGSCAT"
      OrderNumber="11"
      Mandatory="No"
      Role="Grouping Qualifier"
      RoleCodeListOID="RoleCodeList">
    </ItemRef>
    <ItemRef ItemOID="EG.EGPOS"
      OrderNumber="12"
      Mandatory="No"
      Role="Record Qualifier"
      RoleCodeListOID="RoleCodeList">
    </ItemRef>
    <ItemRef ItemOID="EG.EGORRES"
      OrderNumber="13"
      Mandatory="No"
      Role="Result Qualifier"
      RoleCodeListOID="RoleCodeList">
    </ItemRef>
    <ItemRef ItemOID="EG.EGORRESU"
      OrderNumber="14"
      Mandatory="No"
      Role="Variable Qualifier"
      RoleCodeListOID="RoleCodeList">
    </ItemRef>
    <ItemRef ItemOID="EG.EGSTRESC"
      OrderNumber="15"
      Mandatory="No"
      Role="Result Qualifier"
      RoleCodeListOID="RoleCodeList">
    </ItemRef>
    <ItemRef ItemOID="EG.EGSTRESN"
      OrderNumber="16"
      Mandatory="No"
      Role="Result Qualifier"
      RoleCodeListOID="RoleCodeList">
    </ItemRef>
    <ItemRef ItemOID="EG.EGSTRESU"
      OrderNumber="17"
      Mandatory="No"
      Role="Variable Qualifier"
      RoleCodeListOID="RoleCodeList">
    </ItemRef>
    <ItemRef ItemOID="EG.EGSTAT"
      OrderNumber="18"
      Mandatory="No"
      Role="Record Qualifier"
      RoleCodeListOID="RoleCodeList">
    </ItemRef>
    <ItemRef ItemOID="EG.EGREASND"
      OrderNumber="19"
      Mandatory="No"
      Role="Record Qualifier"
      RoleCodeListOID="RoleCodeList">
    </ItemRef>
    <ItemRef ItemOID="EG.EGXFN"
      OrderNumber="20"
      Mandatory="No"
      Role="Record Qualifier"
      RoleCodeListOID="RoleCodeList">
    </ItemRef>
    <ItemRef ItemOID="EG.EGNAM"
      OrderNumber="21"
      Mandatory="No"
      Role="Record Qualifier"
      RoleCodeListOID="RoleCodeList">
    </ItemRef>
    <ItemRef ItemOID="EG.EGLOC"
      OrderNumber="22"
      Mandatory="No"
      Role="Record Qualifier"
      RoleCodeListOID="RoleCodeList">
    </ItemRef>
    <ItemRef ItemOID="EG.EGMETHOD"
      OrderNumber="23"
      Mandatory="No"
      Role="Record Qualifier"
      RoleCodeListOID="RoleCodeList">
    </ItemRef>
    <ItemRef ItemOID="EG.EGBLFL"
      OrderNumber="24"
      Mandatory="No"
      Role="Record Qualifier"
      RoleCodeListOID="RoleCodeList">
    </ItemRef>
    <ItemRef ItemOID="EG.EGDRVFL"
      OrderNumber="25"
      Mandatory="No"
      Role="Record Qualifier"
      RoleCodeListOID="RoleCodeList">
    </ItemRef>
    <ItemRef ItemOID="EG.EGEVAL"
      OrderNumber="26"
      Mandatory="No"
      Role="Record Qualifier"
      RoleCodeListOID="RoleCodeList">
    </ItemRef>
    <ItemRef ItemOID="EG.VISITNUM"
      OrderNumber="27"
      Mandatory="No"
      Role="Timing"
      RoleCodeListOID="RoleCodeList">
    </ItemRef>
    <ItemRef ItemOID="EG.VISIT"
      OrderNumber="28"
      Mandatory="No"
      Role="Timing"
      RoleCodeListOID="RoleCodeList">
    </ItemRef>
    <ItemRef ItemOID="EG.EPOCH"
      OrderNumber="29"
      Mandatory="No"
      Role="Timing"
      RoleCodeListOID="RoleCodeList">
    </ItemRef>
    <ItemRef ItemOID="EG.EGDTC"
      OrderNumber="30"
      Mandatory="No"
      Role="Timing"
      RoleCodeListOID="RoleCodeList">
    </ItemRef>
    <ItemRef ItemOID="EG.EGENDTC"
      OrderNumber="31"
      Mandatory="No"
      Role="Timing"
      RoleCodeListOID="RoleCodeList">
    </ItemRef>
    <ItemRef ItemOID="EG.EGDY"
      OrderNumber="32"
      Mandatory="No"
      Role="Timing"
      RoleCodeListOID="RoleCodeList">
    </ItemRef>
    <ItemRef ItemOID="EG.EGENDY"
      OrderNumber="33"
      Mandatory="No"
      Role="Timing"
      RoleCodeListOID="RoleCodeList">
    </ItemRef>
    <ItemRef ItemOID="EG.EGTPT"
      OrderNumber="34"
      Mandatory="No"
      Role="Timing"
      RoleCodeListOID="RoleCodeList">
    </ItemRef>
    <ItemRef ItemOID="EG.EGTPTNUM"
      OrderNumber="35"
      Mandatory="No"
      Role="Timing"
      RoleCodeListOID="RoleCodeList">
    </ItemRef>
    <ItemRef ItemOID="EG.EGELTM"
      OrderNumber="36"
      Mandatory="No"
      Role="Timing"
      RoleCodeListOID="RoleCodeList">
    </ItemRef>
    <ItemRef ItemOID="EG.EGTPTREF"
      OrderNumber="37"
      Mandatory="No"
      Role="Timing"
      RoleCodeListOID="RoleCodeList">
    </ItemRef>
    <ItemRef ItemOID="EG.EGRFTDTC"
      OrderNumber="38"
      Mandatory="No"
      Role="Timing"
      RoleCodeListOID="RoleCodeList">
    </ItemRef>
    <ItemRef ItemOID="EG.EGEVLINT"
      OrderNumber="39"
      Mandatory="No"
      Role="Timing"
      RoleCodeListOID="RoleCodeList">
    </ItemRef>
    <def:leaf ID="ArchiveLocation.EG"
      xlink:href="eg.xpt">
      <def:title>eg.xpt</def:title>
    </def:leaf>
</ItemGroupDef>
  <ItemGroupDef OID="FA"
    Name="FA"
    Repeating="Yes"
    IsReferenceData="No"
    Purpose="Tabulation"
    def:Label="Findings About Events or Interventions"
    def:Structure="One record per finding per object per time point per time point reference per visit per subject"
    def:DomainKeys="STUDYID, USUBJID, FATESTCD, FAOBJ, VISITNUM, FADTC, FAGRPID, FAORRES"
    def:Class="Findings"
    def:ArchiveLocationID="ArchiveLocation.FA">
    <ItemRef ItemOID="FA.STUDYID"
      OrderNumber="1"
      Mandatory="Yes"
      Role="Identifier"
      RoleCodeListOID="RoleCodeList">
    </ItemRef>
    <ItemRef ItemOID="FA.DOMAIN"
      OrderNumber="2"
      Mandatory="Yes"
      Role="Identifier"
      RoleCodeListOID="RoleCodeList">
    </ItemRef>
    <ItemRef ItemOID="FA.USUBJID"
      OrderNumber="3"
      Mandatory="Yes"
      Role="Identifier"
      RoleCodeListOID="RoleCodeList">
    </ItemRef>
    <ItemRef ItemOID="FA.FASEQ"
      OrderNumber="4"
      Mandatory="Yes"
      Role="Identifier"
      RoleCodeListOID="RoleCodeList">
    </ItemRef>
    <ItemRef ItemOID="FA.FAGRPID"
      OrderNumber="5"
      Mandatory="No"
      Role="Identifier"
      RoleCodeListOID="RoleCodeList">
    </ItemRef>
    <ItemRef ItemOID="FA.FAREFID"
      OrderNumber="6"
      Mandatory="No"
      Role="Identifier"
      RoleCodeListOID="RoleCodeList">
    </ItemRef>
    <ItemRef ItemOID="FA.FASPID"
      OrderNumber="7"
      Mandatory="No"
      Role="Identifier"
      RoleCodeListOID="RoleCodeList">
    </ItemRef>
    <ItemRef ItemOID="FA.FATESTCD"
      OrderNumber="8"
      Mandatory="Yes"
      Role="Topic"
      RoleCodeListOID="RoleCodeList">
    </ItemRef>
    <ItemRef ItemOID="FA.FATEST"
      OrderNumber="9"
      Mandatory="Yes"
      Role="Synonym Qualifier"
      RoleCodeListOID="RoleCodeList">
    </ItemRef>
    <ItemRef ItemOID="FA.FAOBJ"
      OrderNumber="10"
      Mandatory="Yes"
      Role="Record Qualifier"
      RoleCodeListOID="RoleCodeList">
    </ItemRef>
    <ItemRef ItemOID="FA.FACAT"
      OrderNumber="11"
      Mandatory="No"
      Role="Grouping Qualifier"
      RoleCodeListOID="RoleCodeList">
    </ItemRef>
    <ItemRef ItemOID="FA.FASCAT"
      OrderNumber="12"
      Mandatory="No"
      Role="Grouping Qualifier"
      RoleCodeListOID="RoleCodeList">
    </ItemRef>
    <ItemRef ItemOID="FA.FAORRES"
      OrderNumber="13"
      Mandatory="No"
      Role="Result Qualifier"
      RoleCodeListOID="RoleCodeList">
    </ItemRef>
    <ItemRef ItemOID="FA.FAORRESU"
      OrderNumber="14"
      Mandatory="No"
      Role="Variable Qualifier"
      RoleCodeListOID="RoleCodeList">
    </ItemRef>
    <ItemRef ItemOID="FA.FASTRESC"
      OrderNumber="15"
      Mandatory="No"
      Role="Result Qualifier"
      RoleCodeListOID="RoleCodeList">
    </ItemRef>
    <ItemRef ItemOID="FA.FASTRESN"
      OrderNumber="16"
      Mandatory="No"
      Role="Result Qualifier"
      RoleCodeListOID="RoleCodeList">
    </ItemRef>
    <ItemRef ItemOID="FA.FASTRESU"
      OrderNumber="17"
      Mandatory="No"
      Role="Variable Qualifier"
      RoleCodeListOID="RoleCodeList">
    </ItemRef>
    <ItemRef ItemOID="FA.FASTAT"
      OrderNumber="18"
      Mandatory="No"
      Role="Record Qualifier"
      RoleCodeListOID="RoleCodeList">
    </ItemRef>
    <ItemRef ItemOID="FA.FAREASND"
      OrderNumber="19"
      Mandatory="No"
      Role="Record Qualifier"
      RoleCodeListOID="RoleCodeList">
    </ItemRef>
    <ItemRef ItemOID="FA.FALOC"
      OrderNumber="20"
      Mandatory="No"
      Role="Variable Qualifier"
      RoleCodeListOID="RoleCodeList">
    </ItemRef>
    <ItemRef ItemOID="FA.FABLFL"
      OrderNumber="21"
      Mandatory="No"
      Role="Record Qualifier"
      RoleCodeListOID="RoleCodeList">
    </ItemRef>
    <ItemRef ItemOID="FA.FAEVAL"
      OrderNumber="22"
      Mandatory="No"
      Role="Record Qualifier"
      RoleCodeListOID="RoleCodeList">
    </ItemRef>
    <ItemRef ItemOID="FA.VISITNUM"
      OrderNumber="23"
      Mandatory="No"
      Role="Timing"
      RoleCodeListOID="RoleCodeList">
    </ItemRef>
    <ItemRef ItemOID="FA.VISIT"
      OrderNumber="24"
      Mandatory="No"
      Role="Timing"
      RoleCodeListOID="RoleCodeList">
    </ItemRef>
    <ItemRef ItemOID="FA.EPOCH"
      OrderNumber="25"
      Mandatory="No"
      Role="Timing"
      RoleCodeListOID="RoleCodeList">
    </ItemRef>
    <ItemRef ItemOID="FA.FADTC"
      OrderNumber="26"
      Mandatory="No"
      Role="Timing"
      RoleCodeListOID="RoleCodeList">
    </ItemRef>
    <ItemRef ItemOID="FA.FASTDTC"
      OrderNumber="27"
      Mandatory="No"
      Role="Timing"
      RoleCodeListOID="RoleCodeList">
    </ItemRef>
    <ItemRef ItemOID="FA.FAENDTC"
      OrderNumber="28"
      Mandatory="No"
      Role="Timing"
      RoleCodeListOID="RoleCodeList">
    </ItemRef>
    <ItemRef ItemOID="FA.FADY"
      OrderNumber="29"
      Mandatory="No"
      Role="Timing"
      RoleCodeListOID="RoleCodeList">
    </ItemRef>
    <ItemRef ItemOID="FA.FASTDY"
      OrderNumber="30"
      Mandatory="No"
      Role="Timing"
      RoleCodeListOID="RoleCodeList">
    </ItemRef>
    <ItemRef ItemOID="FA.FAENDY"
      OrderNumber="31"
      Mandatory="No"
      Role="Timing"
      RoleCodeListOID="RoleCodeList">
    </ItemRef>
    <ItemRef ItemOID="FA.FAEVLINT"
      OrderNumber="32"
      Mandatory="No"
      Role="Timing"
      RoleCodeListOID="RoleCodeList">
    </ItemRef>
    <def:leaf ID="ArchiveLocation.FA"
      xlink:href="fa.xpt">
      <def:title>fa.xpt</def:title>
    </def:leaf>
</ItemGroupDef>
  <ItemGroupDef OID="LB"
    Name="LB"
    Repeating="Yes"
    IsReferenceData="No"
    Purpose="Tabulation"
    def:Label="Laboratory Tests Results"
    def:Structure="One record per lab test per planned time point number per time point reference per visit per subject"
    def:DomainKeys="STUDYID, USUBJID, LBCAT, VISITNUM, LBDTC, LBTPTNUM, LBSPID, LBTESTCD, LBSTAT, LBGRPID, LBREFID, LBSPEC"
    def:Class="Findings"
    def:ArchiveLocationID="ArchiveLocation.LB">
    <ItemRef ItemOID="LB.STUDYID"
      OrderNumber="1"
      Mandatory="Yes"
      Role="Identifier"
      RoleCodeListOID="RoleCodeList">
    </ItemRef>
    <ItemRef ItemOID="LB.DOMAIN"
      OrderNumber="2"
      Mandatory="Yes"
      Role="Identifier"
      RoleCodeListOID="RoleCodeList">
    </ItemRef>
    <ItemRef ItemOID="LB.USUBJID"
      OrderNumber="3"
      Mandatory="Yes"
      Role="Identifier"
      RoleCodeListOID="RoleCodeList">
    </ItemRef>
    <ItemRef ItemOID="LB.LBSEQ"
      OrderNumber="4"
      Mandatory="Yes"
      Role="Identifier"
      RoleCodeListOID="RoleCodeList">
    </ItemRef>
    <ItemRef ItemOID="LB.LBGRPID"
      OrderNumber="5"
      Mandatory="No"
      Role="Identifier"
      RoleCodeListOID="RoleCodeList">
    </ItemRef>
    <ItemRef ItemOID="LB.LBREFID"
      OrderNumber="6"
      Mandatory="No"
      Role="Identifier"
      RoleCodeListOID="RoleCodeList">
    </ItemRef>
    <ItemRef ItemOID="LB.LBSPID"
      OrderNumber="7"
      Mandatory="No"
      Role="Identifier"
      RoleCodeListOID="RoleCodeList">
    </ItemRef>
    <ItemRef ItemOID="LB.LBTESTCD"
      OrderNumber="8"
      Mandatory="Yes"
      Role="Topic"
      RoleCodeListOID="RoleCodeList">
    </ItemRef>
    <ItemRef ItemOID="LB.LBTEST"
      OrderNumber="9"
      Mandatory="Yes"
      Role="Synonym Qualifier"
      RoleCodeListOID="RoleCodeList">
    </ItemRef>
    <ItemRef ItemOID="LB.LBCAT"
      OrderNumber="10"
      Mandatory="No"
      Role="Grouping Qualifier"
      RoleCodeListOID="RoleCodeList">
    </ItemRef>
    <ItemRef ItemOID="LB.LBSCAT"
      OrderNumber="11"
      Mandatory="No"
      Role="Grouping Qualifier"
      RoleCodeListOID="RoleCodeList">
    </ItemRef>
    <ItemRef ItemOID="LB.LBORRES"
      OrderNumber="12"
      Mandatory="No"
      Role="Result Qualifier"
      RoleCodeListOID="RoleCodeList">
    </ItemRef>
    <ItemRef ItemOID="LB.LBORRESU"
      OrderNumber="13"
      Mandatory="No"
      Role="Variable Qualifier"
      RoleCodeListOID="RoleCodeList">
    </ItemRef>
    <ItemRef ItemOID="LB.LBORNRLO"
      OrderNumber="14"
      Mandatory="No"
      Role="Variable Qualifier"
      RoleCodeListOID="RoleCodeList">
    </ItemRef>
    <ItemRef ItemOID="LB.LBORNRHI"
      OrderNumber="15"
      Mandatory="No"
      Role="Variable Qualifier"
      RoleCodeListOID="RoleCodeList">
    </ItemRef>
    <ItemRef ItemOID="LB.LBSTRESC"
      OrderNumber="16"
      Mandatory="No"
      Role="Result Qualifier"
      RoleCodeListOID="RoleCodeList">
    </ItemRef>
    <ItemRef ItemOID="LB.LBSTRESN"
      OrderNumber="17"
      Mandatory="No"
      Role="Result Qualifier"
      RoleCodeListOID="RoleCodeList">
    </ItemRef>
    <ItemRef ItemOID="LB.LBSTRESU"
      OrderNumber="18"
      Mandatory="No"
      Role="Variable Qualifier"
      RoleCodeListOID="RoleCodeList">
    </ItemRef>
    <ItemRef ItemOID="LB.LBSTNRLO"
      OrderNumber="19"
      Mandatory="No"
      Role="Variable Qualifier"
      RoleCodeListOID="RoleCodeList">
    </ItemRef>
    <ItemRef ItemOID="LB.LBSTNRHI"
      OrderNumber="20"
      Mandatory="No"
      Role="Variable Qualifier"
      RoleCodeListOID="RoleCodeList">
    </ItemRef>
    <ItemRef ItemOID="LB.LBSTNRC"
      OrderNumber="21"
      Mandatory="No"
      Role="Variable Qualifier"
      RoleCodeListOID="RoleCodeList">
    </ItemRef>
    <ItemRef ItemOID="LB.LBNRIND"
      OrderNumber="22"
      Mandatory="No"
      Role="Variable Qualifier"
      RoleCodeListOID="RoleCodeList">
    </ItemRef>
    <ItemRef ItemOID="LB.LBRESCAT"
      OrderNumber="23"
      Mandatory="No"
      Role="Variable Qualifier"
      RoleCodeListOID="RoleCodeList">
    </ItemRef>
    <ItemRef ItemOID="LB.LBSTAT"
      OrderNumber="24"
      Mandatory="No"
      Role="Record Qualifier"
      RoleCodeListOID="RoleCodeList">
    </ItemRef>
    <ItemRef ItemOID="LB.LBREASND"
      OrderNumber="25"
      Mandatory="No"
      Role="Record Qualifier"
      RoleCodeListOID="RoleCodeList">
    </ItemRef>
    <ItemRef ItemOID="LB.LBNAM"
      OrderNumber="26"
      Mandatory="No"
      Role="Record Qualifier"
      RoleCodeListOID="RoleCodeList">
    </ItemRef>
    <ItemRef ItemOID="LB.LBLOINC"
      OrderNumber="27"
      Mandatory="No"
      Role="Synonym Qualifier"
      RoleCodeListOID="RoleCodeList">
    </ItemRef>
    <ItemRef ItemOID="LB.LBSPEC"
      OrderNumber="28"
      Mandatory="No"
      Role="Record Qualifier"
      RoleCodeListOID="RoleCodeList">
    </ItemRef>
    <ItemRef ItemOID="LB.LBSPCCND"
      OrderNumber="29"
      Mandatory="No"
      Role="Record Qualifier"
      RoleCodeListOID="RoleCodeList">
    </ItemRef>
    <ItemRef ItemOID="LB.LBLOC"
      OrderNumber="30"
      Mandatory="No"
      Role="Record Qualifier"
      RoleCodeListOID="RoleCodeList">
    </ItemRef>
    <ItemRef ItemOID="LB.LBMETHOD"
      OrderNumber="31"
      Mandatory="No"
      Role="Record Qualifier"
      RoleCodeListOID="RoleCodeList">
    </ItemRef>
    <ItemRef ItemOID="LB.LBBLFL"
      OrderNumber="32"
      Mandatory="No"
      Role="Record Qualifier"
      RoleCodeListOID="RoleCodeList">
    </ItemRef>
    <ItemRef ItemOID="LB.LBFAST"
      OrderNumber="33"
      Mandatory="No"
      Role="Record Qualifier"
      RoleCodeListOID="RoleCodeList">
    </ItemRef>
    <ItemRef ItemOID="LB.LBDRVFL"
      OrderNumber="34"
      Mandatory="No"
      Role="Record Qualifier"
      RoleCodeListOID="RoleCodeList">
    </ItemRef>
    <ItemRef ItemOID="LB.LBTOX"
      OrderNumber="35"
      Mandatory="No"
      Role="Variable Qualifier"
      RoleCodeListOID="RoleCodeList">
    </ItemRef>
    <ItemRef ItemOID="LB.LBTOXGR"
      OrderNumber="36"
      Mandatory="No"
      Role="Variable Qualifier"
      RoleCodeListOID="RoleCodeList">
    </ItemRef>
    <ItemRef ItemOID="LB.VISITNUM"
      OrderNumber="37"
      Mandatory="No"
      Role="Timing"
      RoleCodeListOID="RoleCodeList">
    </ItemRef>
    <ItemRef ItemOID="LB.VISIT"
      OrderNumber="38"
      Mandatory="No"
      Role="Timing"
      RoleCodeListOID="RoleCodeList">
    </ItemRef>
    <ItemRef ItemOID="LB.EPOCH"
      OrderNumber="39"
      Mandatory="No"
      Role="Timing"
      RoleCodeListOID="RoleCodeList">
    </ItemRef>
    <ItemRef ItemOID="LB.LBDTC"
      OrderNumber="40"
      Mandatory="No"
      Role="Timing"
      RoleCodeListOID="RoleCodeList">
    </ItemRef>
    <ItemRef ItemOID="LB.LBENDTC"
      OrderNumber="41"
      Mandatory="No"
      Role="Timing"
      RoleCodeListOID="RoleCodeList">
    </ItemRef>
    <ItemRef ItemOID="LB.LBDY"
      OrderNumber="42"
      Mandatory="No"
      Role="Timing"
      RoleCodeListOID="RoleCodeList">
    </ItemRef>
    <ItemRef ItemOID="LB.LBENDY"
      OrderNumber="43"
      Mandatory="No"
      Role="Timing"
      RoleCodeListOID="RoleCodeList">
    </ItemRef>
    <ItemRef ItemOID="LB.LBTPT"
      OrderNumber="44"
      Mandatory="No"
      Role="Timing"
      RoleCodeListOID="RoleCodeList">
    </ItemRef>
    <ItemRef ItemOID="LB.LBTPTNUM"
      OrderNumber="45"
      Mandatory="No"
      Role="Timing"
      RoleCodeListOID="RoleCodeList">
    </ItemRef>
    <ItemRef ItemOID="LB.LBELTM"
      OrderNumber="46"
      Mandatory="No"
      Role="Timing"
      RoleCodeListOID="RoleCodeList">
    </ItemRef>
    <ItemRef ItemOID="LB.LBTPTREF"
      OrderNumber="47"
      Mandatory="No"
      Role="Timing"
      RoleCodeListOID="RoleCodeList">
    </ItemRef>
    <ItemRef ItemOID="LB.LBRFTDTC"
      OrderNumber="48"
      Mandatory="No"
      Role="Timing"
      RoleCodeListOID="RoleCodeList">
    </ItemRef>
    <def:leaf ID="ArchiveLocation.LB"
      xlink:href="lb.xpt">
      <def:title>lb.xpt</def:title>
    </def:leaf>
</ItemGroupDef>
  <ItemGroupDef OID="PC"
    Name="PC"
    Repeating="Yes"
    IsReferenceData="No"
    Purpose="Tabulation"
    def:Label="Pharmacokinetic Concentrations"
    def:Structure="One record per analyte per planned time point number per time point reference per visit per subject"
    def:DomainKeys="STUDYID, USUBJID, PCCAT, VISITNUM, PCDTC, PCTPTNUM, PCSPEC, PCTESTCD, PCREFID"
    def:Class="Findings"
    def:ArchiveLocationID="ArchiveLocation.PC">
    <ItemRef ItemOID="PC.STUDYID"
      OrderNumber="1"
      Mandatory="Yes"
      Role="Identifier"
      RoleCodeListOID="RoleCodeList">
    </ItemRef>
    <ItemRef ItemOID="PC.DOMAIN"
      OrderNumber="2"
      Mandatory="Yes"
      Role="Identifier"
      RoleCodeListOID="RoleCodeList">
    </ItemRef>
    <ItemRef ItemOID="PC.USUBJID"
      OrderNumber="3"
      Mandatory="Yes"
      Role="Identifier"
      RoleCodeListOID="RoleCodeList">
    </ItemRef>
    <ItemRef ItemOID="PC.PCSEQ"
      OrderNumber="4"
      Mandatory="Yes"
      Role="Identifier"
      RoleCodeListOID="RoleCodeList">
    </ItemRef>
    <ItemRef ItemOID="PC.PCGRPID"
      OrderNumber="5"
      Mandatory="No"
      Role="Identifier"
      RoleCodeListOID="RoleCodeList">
    </ItemRef>
    <ItemRef ItemOID="PC.PCREFID"
      OrderNumber="6"
      Mandatory="No"
      Role="Identifier"
      RoleCodeListOID="RoleCodeList">
    </ItemRef>
    <ItemRef ItemOID="PC.PCSPID"
      OrderNumber="7"
      Mandatory="No"
      Role="Identifier"
      RoleCodeListOID="RoleCodeList">
    </ItemRef>
    <ItemRef ItemOID="PC.PCTESTCD"
      OrderNumber="8"
      Mandatory="Yes"
      Role="Topic"
      RoleCodeListOID="RoleCodeList">
    </ItemRef>
    <ItemRef ItemOID="PC.PCTEST"
      OrderNumber="9"
      Mandatory="Yes"
      Role="Synonym Qualifier"
      RoleCodeListOID="RoleCodeList">
    </ItemRef>
    <ItemRef ItemOID="PC.PCCAT"
      OrderNumber="10"
      Mandatory="No"
      Role="Grouping Qualifier"
      RoleCodeListOID="RoleCodeList">
    </ItemRef>
    <ItemRef ItemOID="PC.PCSCAT"
      OrderNumber="11"
      Mandatory="No"
      Role="Grouping Qualifier"
      RoleCodeListOID="RoleCodeList">
    </ItemRef>
    <ItemRef ItemOID="PC.PCORRES"
      OrderNumber="12"
      Mandatory="Yes"
      Role="Result Qualifier"
      RoleCodeListOID="RoleCodeList">
    </ItemRef>
    <ItemRef ItemOID="PC.PCORRESU"
      OrderNumber="13"
      Mandatory="Yes"
      Role="Variable Qualifier"
      RoleCodeListOID="RoleCodeList">
    </ItemRef>
    <ItemRef ItemOID="PC.PCSTRESC"
      OrderNumber="14"
      Mandatory="Yes"
      Role="Result Qualifier"
      RoleCodeListOID="RoleCodeList">
    </ItemRef>
    <ItemRef ItemOID="PC.PCSTRESN"
      OrderNumber="15"
      Mandatory="No"
      Role="Result Qualifier"
      RoleCodeListOID="RoleCodeList">
    </ItemRef>
    <ItemRef ItemOID="PC.PCSTRESU"
      OrderNumber="16"
      Mandatory="No"
      Role="Variable Qualifier"
      RoleCodeListOID="RoleCodeList">
    </ItemRef>
    <ItemRef ItemOID="PC.PCSTAT"
      OrderNumber="17"
      Mandatory="No"
      Role="Record Qualifier"
      RoleCodeListOID="RoleCodeList">
    </ItemRef>
    <ItemRef ItemOID="PC.PCREASND"
      OrderNumber="18"
      Mandatory="No"
      Role="Record Qualifier"
      RoleCodeListOID="RoleCodeList">
    </ItemRef>
    <ItemRef ItemOID="PC.PCNAM"
      OrderNumber="19"
      Mandatory="No"
      Role="Record Qualifier"
      RoleCodeListOID="RoleCodeList">
    </ItemRef>
    <ItemRef ItemOID="PC.PCSPEC"
      OrderNumber="20"
      Mandatory="Yes"
      Role="Record Qualifier"
      RoleCodeListOID="RoleCodeList">
    </ItemRef>
    <ItemRef ItemOID="PC.PCSPCCND"
      OrderNumber="21"
      Mandatory="No"
      Role="Record Qualifier"
      RoleCodeListOID="RoleCodeList">
    </ItemRef>
    <ItemRef ItemOID="PC.PCMETHOD"
      OrderNumber="22"
      Mandatory="No"
      Role="Record Qualifier"
      RoleCodeListOID="RoleCodeList">
    </ItemRef>
    <ItemRef ItemOID="PC.PCFAST"
      OrderNumber="23"
      Mandatory="No"
      Role="Record Qualifier"
      RoleCodeListOID="RoleCodeList">
    </ItemRef>
    <ItemRef ItemOID="PC.PCDRVFL"
      OrderNumber="24"
      Mandatory="No"
      Role="Record Qualifier"
      RoleCodeListOID="RoleCodeList">
    </ItemRef>
    <ItemRef ItemOID="PC.PCLLOQ"
      OrderNumber="25"
      Mandatory="No"
      Role="Variable Qualifier"
      RoleCodeListOID="RoleCodeList">
    </ItemRef>
    <ItemRef ItemOID="PC.VISITNUM"
      OrderNumber="26"
      Mandatory="Yes"
      Role="Timing"
      RoleCodeListOID="RoleCodeList">
    </ItemRef>
    <ItemRef ItemOID="PC.VISIT"
      OrderNumber="27"
      Mandatory="No"
      Role="Timing"
      RoleCodeListOID="RoleCodeList">
    </ItemRef>
    <ItemRef ItemOID="PC.EPOCH"
      OrderNumber="28"
      Mandatory="No"
      Role="Timing"
      RoleCodeListOID="RoleCodeList">
    </ItemRef>
    <ItemRef ItemOID="PC.PCDTC"
      OrderNumber="29"
      Mandatory="Yes"
      Role="Timing"
      RoleCodeListOID="RoleCodeList">
    </ItemRef>
    <ItemRef ItemOID="PC.PCENDTC"
      OrderNumber="30"
      Mandatory="No"
      Role="Timing"
      RoleCodeListOID="RoleCodeList">
    </ItemRef>
    <ItemRef ItemOID="PC.PCDY"
      OrderNumber="31"
      Mandatory="No"
      Role="Timing"
      RoleCodeListOID="RoleCodeList">
    </ItemRef>
    <ItemRef ItemOID="PC.PCENDY"
      OrderNumber="32"
      Mandatory="No"
      Role="Timing"
      RoleCodeListOID="RoleCodeList">
    </ItemRef>
    <ItemRef ItemOID="PC.PCTPT"
      OrderNumber="33"
      Mandatory="No"
      Role="Timing"
      RoleCodeListOID="RoleCodeList">
    </ItemRef>
    <ItemRef ItemOID="PC.PCTPTNUM"
      OrderNumber="34"
      Mandatory="No"
      Role="Timing"
      RoleCodeListOID="RoleCodeList">
    </ItemRef>
    <ItemRef ItemOID="PC.PCELTM"
      OrderNumber="35"
      Mandatory="No"
      Role="Timing"
      RoleCodeListOID="RoleCodeList">
    </ItemRef>
    <ItemRef ItemOID="PC.PCTPTREF"
      OrderNumber="36"
      Mandatory="No"
      Role="Timing"
      RoleCodeListOID="RoleCodeList">
    </ItemRef>
    <ItemRef ItemOID="PC.PCRFTDTC"
      OrderNumber="37"
      Mandatory="No"
      Role="Timing"
      RoleCodeListOID="RoleCodeList">
    </ItemRef>
    <def:leaf ID="ArchiveLocation.PC"
      xlink:href="pc.xpt">
      <def:title>pc.xpt</def:title>
    </def:leaf>
</ItemGroupDef>
  <ItemGroupDef OID="QS"
    Name="QS"
    Repeating="Yes"
    IsReferenceData="No"
    Purpose="Tabulation"
    def:Label="Questionnaires"
    def:Structure="One record per questionnaire per question per time point per visit per subject"
    def:DomainKeys="STUDYID, USUBJID, QSTESTCD, VISITNUM, QSTPTNUM, QSDTC, QSCAT, QSSPID, QSORRES"
    def:Class="Findings"
    def:ArchiveLocationID="ArchiveLocation.QS">
    <ItemRef ItemOID="QS.STUDYID"
      OrderNumber="1"
      Mandatory="Yes"
      Role="Identifier"
      RoleCodeListOID="RoleCodeList">
    </ItemRef>
    <ItemRef ItemOID="QS.DOMAIN"
      OrderNumber="2"
      Mandatory="Yes"
      Role="Identifier"
      RoleCodeListOID="RoleCodeList">
    </ItemRef>
    <ItemRef ItemOID="QS.USUBJID"
      OrderNumber="3"
      Mandatory="Yes"
      Role="Identifier"
      RoleCodeListOID="RoleCodeList">
    </ItemRef>
    <ItemRef ItemOID="QS.QSSEQ"
      OrderNumber="4"
      Mandatory="Yes"
      Role="Identifier"
      RoleCodeListOID="RoleCodeList">
    </ItemRef>
    <ItemRef ItemOID="QS.QSGRPID"
      OrderNumber="5"
      Mandatory="No"
      Role="Identifier"
      RoleCodeListOID="RoleCodeList">
    </ItemRef>
    <ItemRef ItemOID="QS.QSSPID"
      OrderNumber="6"
      Mandatory="No"
      Role="Identifier"
      RoleCodeListOID="RoleCodeList">
    </ItemRef>
    <ItemRef ItemOID="QS.QSTESTCD"
      OrderNumber="7"
      Mandatory="Yes"
      Role="Topic"
      RoleCodeListOID="RoleCodeList">
    </ItemRef>
    <ItemRef ItemOID="QS.QSTEST"
      OrderNumber="8"
      Mandatory="Yes"
      Role="Synonym Qualifier"
      RoleCodeListOID="RoleCodeList">
    </ItemRef>
    <ItemRef ItemOID="QS.QSCAT"
      OrderNumber="9"
      Mandatory="Yes"
      Role="Grouping Qualifier"
      RoleCodeListOID="RoleCodeList">
    </ItemRef>
    <ItemRef ItemOID="QS.QSSCAT"
      OrderNumber="10"
      Mandatory="No"
      Role="Grouping Qualifier"
      RoleCodeListOID="RoleCodeList">
    </ItemRef>
    <ItemRef ItemOID="QS.QSORRES"
      OrderNumber="11"
      Mandatory="No"
      Role="Result Qualifier"
      RoleCodeListOID="RoleCodeList">
    </ItemRef>
    <ItemRef ItemOID="QS.QSORRESU"
      OrderNumber="12"
      Mandatory="No"
      Role="Variable Qualifier"
      RoleCodeListOID="RoleCodeList">
    </ItemRef>
    <ItemRef ItemOID="QS.QSSTRESC"
      OrderNumber="13"
      Mandatory="No"
      Role="Result Qualifier"
      RoleCodeListOID="RoleCodeList">
    </ItemRef>
    <ItemRef ItemOID="QS.QSSTRESN"
      OrderNumber="14"
      Mandatory="No"
      Role="Result Qualifier"
      RoleCodeListOID="RoleCodeList">
    </ItemRef>
    <ItemRef ItemOID="QS.QSSTRESU"
      OrderNumber="15"
      Mandatory="No"
      Role="Variable Qualifier"
      RoleCodeListOID="RoleCodeList">
    </ItemRef>
    <ItemRef ItemOID="QS.QSSTAT"
      OrderNumber="16"
      Mandatory="No"
      Role="Record Qualifier"
      RoleCodeListOID="RoleCodeList">
    </ItemRef>
    <ItemRef ItemOID="QS.QSREASND"
      OrderNumber="17"
      Mandatory="No"
      Role="Record Qualifier"
      RoleCodeListOID="RoleCodeList">
    </ItemRef>
    <ItemRef ItemOID="QS.QSLOC"
      OrderNumber="18"
      Mandatory="No"
      Role="Record Qualifier"
      RoleCodeListOID="RoleCodeList">
    </ItemRef>
    <ItemRef ItemOID="QS.QSMETHOD"
      OrderNumber="19"
      Mandatory="No"
      Role="Record Qualifier"
      RoleCodeListOID="RoleCodeList">
    </ItemRef>
    <ItemRef ItemOID="QS.QSBLFL"
      OrderNumber="20"
      Mandatory="No"
      Role="Record Qualifier"
      RoleCodeListOID="RoleCodeList">
    </ItemRef>
    <ItemRef ItemOID="QS.QSDRVFL"
      OrderNumber="21"
      Mandatory="No"
      Role="Record Qualifier"
      RoleCodeListOID="RoleCodeList">
    </ItemRef>
    <ItemRef ItemOID="QS.QSEVAL"
      OrderNumber="22"
      Mandatory="No"
      Role="Record Qualifier"
      RoleCodeListOID="RoleCodeList">
    </ItemRef>
    <ItemRef ItemOID="QS.VISITNUM"
      OrderNumber="23"
      Mandatory="No"
      Role="Timing"
      RoleCodeListOID="RoleCodeList">
    </ItemRef>
    <ItemRef ItemOID="QS.VISIT"
      OrderNumber="24"
      Mandatory="No"
      Role="Timing"
      RoleCodeListOID="RoleCodeList">
    </ItemRef>
    <ItemRef ItemOID="QS.EPOCH"
      OrderNumber="25"
      Mandatory="No"
      Role="Timing"
      RoleCodeListOID="RoleCodeList">
    </ItemRef>
    <ItemRef ItemOID="QS.QSDTC"
      OrderNumber="26"
      Mandatory="No"
      Role="Timing"
      RoleCodeListOID="RoleCodeList">
    </ItemRef>
    <ItemRef ItemOID="QS.QSENDTC"
      OrderNumber="27"
      Mandatory="No"
      Role="Timing"
      RoleCodeListOID="RoleCodeList">
    </ItemRef>
    <ItemRef ItemOID="QS.QSDY"
      OrderNumber="28"
      Mandatory="No"
      Role="Timing"
      RoleCodeListOID="RoleCodeList">
    </ItemRef>
    <ItemRef ItemOID="QS.QSENDY"
      OrderNumber="29"
      Mandatory="No"
      Role="Timing"
      RoleCodeListOID="RoleCodeList">
    </ItemRef>
    <ItemRef ItemOID="QS.QSTPT"
      OrderNumber="30"
      Mandatory="No"
      Role="Timing"
      RoleCodeListOID="RoleCodeList">
    </ItemRef>
    <ItemRef ItemOID="QS.QSTPTNUM"
      OrderNumber="31"
      Mandatory="No"
      Role="Timing"
      RoleCodeListOID="RoleCodeList">
    </ItemRef>
    <ItemRef ItemOID="QS.QSELTM"
      OrderNumber="32"
      Mandatory="No"
      Role="Timing"
      RoleCodeListOID="RoleCodeList">
    </ItemRef>
    <ItemRef ItemOID="QS.QSTPTREF"
      OrderNumber="33"
      Mandatory="No"
      Role="Timing"
      RoleCodeListOID="RoleCodeList">
    </ItemRef>
    <ItemRef ItemOID="QS.QSRFTDTC"
      OrderNumber="34"
      Mandatory="No"
      Role="Timing"
      RoleCodeListOID="RoleCodeList">
    </ItemRef>
    <ItemRef ItemOID="QS.QSEVLINT"
      OrderNumber="35"
      Mandatory="No"
      Role="Timing"
      RoleCodeListOID="RoleCodeList">
    </ItemRef>
    <def:leaf ID="ArchiveLocation.QS"
      xlink:href="qs.xpt">
      <def:title>qs.xpt</def:title>
    </def:leaf>
</ItemGroupDef>
  <ItemGroupDef OID="SC"
    Name="SC"
    Repeating="Yes"
    IsReferenceData="No"
    Purpose="Tabulation"
    def:Label="Subject Characteristics"
    def:Structure="One record per characteristic per subject"
    def:DomainKeys="STUDYID, USUBJID,  SCTESTCD, SCCAT, VISITNUM"
    def:Class="Findings"
    def:ArchiveLocationID="ArchiveLocation.SC">
    <ItemRef ItemOID="SC.STUDYID"
      OrderNumber="1"
      Mandatory="Yes"
      Role="Identifier"
      RoleCodeListOID="RoleCodeList">
    </ItemRef>
    <ItemRef ItemOID="SC.DOMAIN"
      OrderNumber="2"
      Mandatory="Yes"
      Role="Identifier"
      RoleCodeListOID="RoleCodeList">
    </ItemRef>
    <ItemRef ItemOID="SC.USUBJID"
      OrderNumber="3"
      Mandatory="Yes"
      Role="Identifier"
      RoleCodeListOID="RoleCodeList">
    </ItemRef>
    <ItemRef ItemOID="SC.SCSEQ"
      OrderNumber="4"
      Mandatory="Yes"
      Role="Identifier"
      RoleCodeListOID="RoleCodeList">
    </ItemRef>
    <ItemRef ItemOID="SC.SCGRPID"
      OrderNumber="5"
      Mandatory="No"
      Role="Identifier"
      RoleCodeListOID="RoleCodeList">
    </ItemRef>
    <ItemRef ItemOID="SC.SCSPID"
      OrderNumber="6"
      Mandatory="No"
      Role="Identifier"
      RoleCodeListOID="RoleCodeList">
    </ItemRef>
    <ItemRef ItemOID="SC.SCTESTCD"
      OrderNumber="7"
      Mandatory="Yes"
      Role="Topic"
      RoleCodeListOID="RoleCodeList">
    </ItemRef>
    <ItemRef ItemOID="SC.SCTEST"
      OrderNumber="8"
      Mandatory="Yes"
      Role="Synonym Qualifier"
      RoleCodeListOID="RoleCodeList">
    </ItemRef>
    <ItemRef ItemOID="SC.SCCAT"
      OrderNumber="9"
      Mandatory="No"
      Role="Grouping Qualifier"
      RoleCodeListOID="RoleCodeList">
    </ItemRef>
    <ItemRef ItemOID="SC.SCSCAT"
      OrderNumber="10"
      Mandatory="No"
      Role="Grouping Qualifier"
      RoleCodeListOID="RoleCodeList">
    </ItemRef>
    <ItemRef ItemOID="SC.SCORRES"
      OrderNumber="11"
      Mandatory="No"
      Role="Result Qualifier"
      RoleCodeListOID="RoleCodeList">
    </ItemRef>
    <ItemRef ItemOID="SC.SCORRESU"
      OrderNumber="12"
      Mandatory="No"
      Role="Variable Qualifier"
      RoleCodeListOID="RoleCodeList">
    </ItemRef>
    <ItemRef ItemOID="SC.SCSTRESC"
      OrderNumber="13"
      Mandatory="No"
      Role="Result Qualifier"
      RoleCodeListOID="RoleCodeList">
    </ItemRef>
    <ItemRef ItemOID="SC.SCSTRESN"
      OrderNumber="14"
      Mandatory="No"
      Role="Result Qualifier"
      RoleCodeListOID="RoleCodeList">
    </ItemRef>
    <ItemRef ItemOID="SC.SCSTRESU"
      OrderNumber="15"
      Mandatory="No"
      Role="Variable Qualifier"
      RoleCodeListOID="RoleCodeList">
    </ItemRef>
    <ItemRef ItemOID="SC.SCSTAT"
      OrderNumber="16"
      Mandatory="No"
      Role="Record Qualifier"
      RoleCodeListOID="RoleCodeList">
    </ItemRef>
    <ItemRef ItemOID="SC.SCREASND"
      OrderNumber="17"
      Mandatory="No"
      Role="Record Qualifier"
      RoleCodeListOID="RoleCodeList">
    </ItemRef>
    <ItemRef ItemOID="SC.VISITNUM"
      OrderNumber="18"
      Mandatory="Yes"
      Role="Timing"
      RoleCodeListOID="RoleCodeList">
    </ItemRef>
    <ItemRef ItemOID="SC.VISIT"
      OrderNumber="19"
      Mandatory="No"
      Role="Timing"
      RoleCodeListOID="RoleCodeList">
    </ItemRef>
    <ItemRef ItemOID="SC.EPOCH"
      OrderNumber="20"
      Mandatory="No"
      Role="Timing"
      RoleCodeListOID="RoleCodeList">
    </ItemRef>
    <ItemRef ItemOID="SC.SCDTC"
      OrderNumber="21"
      Mandatory="No"
      Role="Timing"
      RoleCodeListOID="RoleCodeList">
    </ItemRef>
    <ItemRef ItemOID="SC.SCDY"
      OrderNumber="22"
      Mandatory="No"
      Role="Timing"
      RoleCodeListOID="RoleCodeList">
    </ItemRef>
    <def:leaf ID="ArchiveLocation.SC"
      xlink:href="sc.xpt">
      <def:title>sc.xpt</def:title>
    </def:leaf>
</ItemGroupDef>
  <ItemGroupDef OID="VS"
    Name="VS"
    Repeating="Yes"
    IsReferenceData="No"
    Purpose="Tabulation"
    def:Label="Vital Signs"
    def:Structure="One record per vital sign measurement per time point per visit per subject"
    def:DomainKeys="STUDYID, USUBJID, VSTESTCD, VISITNUM, VSTPTREF, VSTPTNUM, VSCAT, VSDTC, VSGRPID, VSPOS"
    def:Class="Findings"
    def:ArchiveLocationID="ArchiveLocation.VS">
    <ItemRef ItemOID="VS.STUDYID"
      OrderNumber="1"
      Mandatory="Yes"
      Role="Identifier"
      RoleCodeListOID="RoleCodeList">
    </ItemRef>
    <ItemRef ItemOID="VS.DOMAIN"
      OrderNumber="2"
      Mandatory="Yes"
      Role="Identifier"
      RoleCodeListOID="RoleCodeList">
    </ItemRef>
    <ItemRef ItemOID="VS.USUBJID"
      OrderNumber="3"
      Mandatory="Yes"
      Role="Identifier"
      RoleCodeListOID="RoleCodeList">
    </ItemRef>
    <ItemRef ItemOID="VS.VSSEQ"
      OrderNumber="4"
      Mandatory="Yes"
      Role="Identifier"
      RoleCodeListOID="RoleCodeList">
    </ItemRef>
    <ItemRef ItemOID="VS.VSGRPID"
      OrderNumber="5"
      Mandatory="No"
      Role="Identifier"
      RoleCodeListOID="RoleCodeList">
    </ItemRef>
    <ItemRef ItemOID="VS.VSSPID"
      OrderNumber="6"
      Mandatory="No"
      Role="Identifier"
      RoleCodeListOID="RoleCodeList">
    </ItemRef>
    <ItemRef ItemOID="VS.VSTESTCD"
      OrderNumber="7"
      Mandatory="Yes"
      Role="Topic"
      RoleCodeListOID="RoleCodeList">
    </ItemRef>
    <ItemRef ItemOID="VS.VSTEST"
      OrderNumber="8"
      Mandatory="Yes"
      Role="Synonym Qualifier"
      RoleCodeListOID="RoleCodeList">
    </ItemRef>
    <ItemRef ItemOID="VS.VSCAT"
      OrderNumber="9"
      Mandatory="No"
      Role="Grouping Qualifier"
      RoleCodeListOID="RoleCodeList">
    </ItemRef>
    <ItemRef ItemOID="VS.VSSCAT"
      OrderNumber="10"
      Mandatory="No"
      Role="Grouping Qualifier"
      RoleCodeListOID="RoleCodeList">
    </ItemRef>
    <ItemRef ItemOID="VS.VSPOS"
      OrderNumber="11"
      Mandatory="No"
      Role="Record Qualifier"
      RoleCodeListOID="RoleCodeList">
    </ItemRef>
    <ItemRef ItemOID="VS.VSORRES"
      OrderNumber="12"
      Mandatory="No"
      Role="Result Qualifier"
      RoleCodeListOID="RoleCodeList">
    </ItemRef>
    <ItemRef ItemOID="VS.VSORRESU"
      OrderNumber="13"
      Mandatory="No"
      Role="Variable Qualifier"
      RoleCodeListOID="RoleCodeList">
    </ItemRef>
    <ItemRef ItemOID="VS.VSSTRESC"
      OrderNumber="14"
      Mandatory="No"
      Role="Result Qualifier"
      RoleCodeListOID="RoleCodeList">
    </ItemRef>
    <ItemRef ItemOID="VS.VSSTRESN"
      OrderNumber="15"
      Mandatory="No"
      Role="Result Qualifier"
      RoleCodeListOID="RoleCodeList">
    </ItemRef>
    <ItemRef ItemOID="VS.VSSTRESU"
      OrderNumber="16"
      Mandatory="No"
      Role="Variable Qualifier"
      RoleCodeListOID="RoleCodeList">
    </ItemRef>
    <ItemRef ItemOID="VS.VSSTAT"
      OrderNumber="17"
      Mandatory="No"
      Role="Record Qualifier"
      RoleCodeListOID="RoleCodeList">
    </ItemRef>
    <ItemRef ItemOID="VS.VSREASND"
      OrderNumber="18"
      Mandatory="No"
      Role="Record Qualifier"
      RoleCodeListOID="RoleCodeList">
    </ItemRef>
    <ItemRef ItemOID="VS.VSLOC"
      OrderNumber="19"
      Mandatory="No"
      Role="Record Qualifier"
      RoleCodeListOID="RoleCodeList">
    </ItemRef>
    <ItemRef ItemOID="VS.VSBLFL"
      OrderNumber="20"
      Mandatory="No"
      Role="Record Qualifier"
      RoleCodeListOID="RoleCodeList">
    </ItemRef>
    <ItemRef ItemOID="VS.VSDRVFL"
      OrderNumber="21"
      Mandatory="No"
      Role="Record Qualifier"
      RoleCodeListOID="RoleCodeList">
    </ItemRef>
    <ItemRef ItemOID="VS.VISITNUM"
      OrderNumber="22"
      Mandatory="Yes"
      Role="Timing"
      RoleCodeListOID="RoleCodeList">
    </ItemRef>
    <ItemRef ItemOID="VS.VISIT"
      OrderNumber="23"
      Mandatory="No"
      Role="Timing"
      RoleCodeListOID="RoleCodeList">
    </ItemRef>
    <ItemRef ItemOID="VS.EPOCH"
      OrderNumber="24"
      Mandatory="No"
      Role="Timing"
      RoleCodeListOID="RoleCodeList">
    </ItemRef>
    <ItemRef ItemOID="VS.VSDTC"
      OrderNumber="25"
      Mandatory="No"
      Role="Timing"
      RoleCodeListOID="RoleCodeList">
    </ItemRef>
    <ItemRef ItemOID="VS.VSDY"
      OrderNumber="26"
      Mandatory="No"
      Role="Timing"
      RoleCodeListOID="RoleCodeList">
    </ItemRef>
    <ItemRef ItemOID="VS.VSTPT"
      OrderNumber="27"
      Mandatory="No"
      Role="Timing"
      RoleCodeListOID="RoleCodeList">
    </ItemRef>
    <ItemRef ItemOID="VS.VSTPTNUM"
      OrderNumber="28"
      Mandatory="No"
      Role="Timing"
      RoleCodeListOID="RoleCodeList">
    </ItemRef>
    <ItemRef ItemOID="VS.VSELTM"
      OrderNumber="29"
      Mandatory="No"
      Role="Timing"
      RoleCodeListOID="RoleCodeList">
    </ItemRef>
    <ItemRef ItemOID="VS.VSTPTREF"
      OrderNumber="30"
      Mandatory="No"
      Role="Timing"
      RoleCodeListOID="RoleCodeList">
    </ItemRef>
    <ItemRef ItemOID="VS.VSRFTDTC"
      OrderNumber="31"
      Mandatory="No"
      Role="Timing"
      RoleCodeListOID="RoleCodeList">
    </ItemRef>
    <def:leaf ID="ArchiveLocation.VS"
      xlink:href="vs.xpt">
      <def:title>vs.xpt</def:title>
    </def:leaf>
</ItemGroupDef>
  <ItemGroupDef OID="SUPPAE"
    Name="SUPPAE"
    Repeating="Yes"
    IsReferenceData="No"
    Purpose="Tabulation"
    def:Label="Supplemental Qualifiers for AE"
    def:Structure="One record per IDVAR, IDVARVAL, and QNAM value per subject."
    def:DomainKeys="USUBJID, RDOMAIN, IDVAR, IDVARVAL, QNAM"
    def:Class="Relationship"
    def:ArchiveLocationID="ArchiveLocation.SUPPAE">
    <ItemRef ItemOID="SUPPAE.STUDYID"
      OrderNumber="1"
      Mandatory="Yes"
      Role="Identifier"
      RoleCodeListOID="RoleCodeList">
    </ItemRef>
    <ItemRef ItemOID="SUPPAE.RDOMAIN"
      OrderNumber="2"
      Mandatory="Yes"
      Role="Identifier"
      RoleCodeListOID="RoleCodeList">
    </ItemRef>
    <ItemRef ItemOID="SUPPAE.USUBJID"
      OrderNumber="3"
      Mandatory="Yes"
      Role="Identifier"
      RoleCodeListOID="RoleCodeList">
    </ItemRef>
    <ItemRef ItemOID="SUPPAE.IDVAR"
      OrderNumber="4"
      Mandatory="No"
      Role="Identifier"
      RoleCodeListOID="RoleCodeList">
    </ItemRef>
    <ItemRef ItemOID="SUPPAE.IDVARVAL"
      OrderNumber="5"
      Mandatory="No"
      Role="Identifier"
      RoleCodeListOID="RoleCodeList">
    </ItemRef>
    <ItemRef ItemOID="SUPPAE.QNAM"
      OrderNumber="6"
      Mandatory="Yes"
      Role="Topic"
      RoleCodeListOID="RoleCodeList">
    </ItemRef>
    <ItemRef ItemOID="SUPPAE.QLABEL"
      OrderNumber="7"
      Mandatory="Yes"
      Role="Variable Qualifier"
      RoleCodeListOID="RoleCodeList">
    </ItemRef>
    <ItemRef ItemOID="SUPPAE.QVAL"
      OrderNumber="8"
      Mandatory="Yes"
      Role="Result Qualifier"
      RoleCodeListOID="RoleCodeList">
    </ItemRef>
    <ItemRef ItemOID="SUPPAE.QORIG"
      OrderNumber="9"
      Mandatory="Yes"
      Role="Variable Qualifier"
      RoleCodeListOID="RoleCodeList">
    </ItemRef>
    <ItemRef ItemOID="SUPPAE.QEVAL"
      OrderNumber="10"
      Mandatory="No"
      Role="Record Qualifier"
      RoleCodeListOID="RoleCodeList">
    </ItemRef>
    <def:leaf ID="ArchiveLocation.SUPPAE"
      xlink:href="suppae.xpt">
      <def:title>suppae.xpt</def:title>
    </def:leaf>
</ItemGroupDef>
  <ItemGroupDef OID="SUPPCM"
    Name="SUPPCM"
    Repeating="Yes"
    IsReferenceData="No"
    Purpose="Tabulation"
    def:Label="Supplemental Qualifiers for CM"
    def:Structure="One record per IDVAR, IDVARVAL, and QNAM value per subject."
    def:DomainKeys="STUDYID, USUBJID, RDOMAIN, IDVAR, IDVARVAL, QNAM"
    def:Class="Relationship"
    def:ArchiveLocationID="ArchiveLocation.SUPPCM">
    <ItemRef ItemOID="SUPPCM.STUDYID"
      OrderNumber="1"
      Mandatory="Yes"
      Role="Identifier"
      RoleCodeListOID="RoleCodeList">
    </ItemRef>
    <ItemRef ItemOID="SUPPCM.RDOMAIN"
      OrderNumber="2"
      Mandatory="Yes"
      Role="Identifier"
      RoleCodeListOID="RoleCodeList">
    </ItemRef>
    <ItemRef ItemOID="SUPPCM.USUBJID"
      OrderNumber="3"
      Mandatory="Yes"
      Role="Identifier"
      RoleCodeListOID="RoleCodeList">
    </ItemRef>
    <ItemRef ItemOID="SUPPCM.IDVAR"
      OrderNumber="4"
      Mandatory="No"
      Role="Identifier"
      RoleCodeListOID="RoleCodeList">
    </ItemRef>
    <ItemRef ItemOID="SUPPCM.IDVARVAL"
      OrderNumber="5"
      Mandatory="No"
      Role="Identifier"
      RoleCodeListOID="RoleCodeList">
    </ItemRef>
    <ItemRef ItemOID="SUPPCM.QNAM"
      OrderNumber="6"
      Mandatory="Yes"
      Role="Topic"
      RoleCodeListOID="RoleCodeList">
    </ItemRef>
    <ItemRef ItemOID="SUPPCM.QLABEL"
      OrderNumber="7"
      Mandatory="Yes"
      Role="Variable Qualifier"
      RoleCodeListOID="RoleCodeList">
    </ItemRef>
    <ItemRef ItemOID="SUPPCM.QVAL"
      OrderNumber="8"
      Mandatory="Yes"
      Role="Result Qualifier"
      RoleCodeListOID="RoleCodeList">
    </ItemRef>
    <ItemRef ItemOID="SUPPCM.QORIG"
      OrderNumber="9"
      Mandatory="Yes"
      Role="Variable Qualifier"
      RoleCodeListOID="RoleCodeList">
    </ItemRef>
    <ItemRef ItemOID="SUPPCM.QEVAL"
      OrderNumber="10"
      Mandatory="No"
      Role="Record Qualifier"
      RoleCodeListOID="RoleCodeList">
    </ItemRef>
    <def:leaf ID="ArchiveLocation.SUPPCM"
      xlink:href="suppcm.xpt">
      <def:title>suppcm.xpt</def:title>
    </def:leaf>
</ItemGroupDef>
  <ItemGroupDef OID="SUPPDA"
    Name="SUPPDA"
    Repeating="Yes"
    IsReferenceData="No"
    Purpose="Tabulation"
    def:Label="Supplemental Qualifiers for DA"
    def:Structure="One record per IDVAR, IDVARVAL, and QNAM value per subject."
    def:DomainKeys="STUDYID, USUBJID, RDOMAIN, IDVAR, IDVARVAL, QNAM"
    def:Class="Relationship"
    def:ArchiveLocationID="ArchiveLocation.SUPPDA">
    <ItemRef ItemOID="SUPPDA.STUDYID"
      OrderNumber="1"
      Mandatory="Yes"
      Role="Identifier"
      RoleCodeListOID="RoleCodeList">
    </ItemRef>
    <ItemRef ItemOID="SUPPDA.RDOMAIN"
      OrderNumber="2"
      Mandatory="Yes"
      Role="Identifier"
      RoleCodeListOID="RoleCodeList">
    </ItemRef>
    <ItemRef ItemOID="SUPPDA.USUBJID"
      OrderNumber="3"
      Mandatory="Yes"
      Role="Identifier"
      RoleCodeListOID="RoleCodeList">
    </ItemRef>
    <ItemRef ItemOID="SUPPDA.IDVAR"
      OrderNumber="4"
      Mandatory="No"
      Role="Identifier"
      RoleCodeListOID="RoleCodeList">
    </ItemRef>
    <ItemRef ItemOID="SUPPDA.IDVARVAL"
      OrderNumber="5"
      Mandatory="No"
      Role="Identifier"
      RoleCodeListOID="RoleCodeList">
    </ItemRef>
    <ItemRef ItemOID="SUPPDA.QNAM"
      OrderNumber="6"
      Mandatory="Yes"
      Role="Topic"
      RoleCodeListOID="RoleCodeList">
    </ItemRef>
    <ItemRef ItemOID="SUPPDA.QLABEL"
      OrderNumber="7"
      Mandatory="Yes"
      Role="Variable Qualifier"
      RoleCodeListOID="RoleCodeList">
    </ItemRef>
    <ItemRef ItemOID="SUPPDA.QVAL"
      OrderNumber="8"
      Mandatory="Yes"
      Role="Result Qualifier"
      RoleCodeListOID="RoleCodeList">
    </ItemRef>
    <ItemRef ItemOID="SUPPDA.QORIG"
      OrderNumber="9"
      Mandatory="Yes"
      Role="Variable Qualifier"
      RoleCodeListOID="RoleCodeList">
    </ItemRef>
    <ItemRef ItemOID="SUPPDA.QEVAL"
      OrderNumber="10"
      Mandatory="No"
      Role="Record Qualifier"
      RoleCodeListOID="RoleCodeList">
    </ItemRef>
    <def:leaf ID="ArchiveLocation.SUPPDA"
      xlink:href="suppda.xpt">
      <def:title>suppda.xpt</def:title>
    </def:leaf>
</ItemGroupDef>
  <ItemGroupDef OID="SUPPDM"
    Name="SUPPDM"
    Repeating="Yes"
    IsReferenceData="No"
    Purpose="Tabulation"
    def:Label="Supplemental Qualifiers for DM"
    def:Structure="One record per IDVAR, IDVARVAL, and QNAM value per subject."
    def:DomainKeys="STUDYID, USUBJID, RDOMAIN, IDVAR, IDVARVAL, QNAM"
    def:Class="Relationship"
    def:ArchiveLocationID="ArchiveLocation.SUPPDM">
    <ItemRef ItemOID="SUPPDM.STUDYID"
      OrderNumber="1"
      Mandatory="Yes"
      Role="Identifier"
      RoleCodeListOID="RoleCodeList">
    </ItemRef>
    <ItemRef ItemOID="SUPPDM.RDOMAIN"
      OrderNumber="2"
      Mandatory="Yes"
      Role="Identifier"
      RoleCodeListOID="RoleCodeList">
    </ItemRef>
    <ItemRef ItemOID="SUPPDM.USUBJID"
      OrderNumber="3"
      Mandatory="Yes"
      Role="Identifier"
      RoleCodeListOID="RoleCodeList">
    </ItemRef>
    <ItemRef ItemOID="SUPPDM.IDVAR"
      OrderNumber="4"
      Mandatory="No"
      Role="Identifier"
      RoleCodeListOID="RoleCodeList">
    </ItemRef>
    <ItemRef ItemOID="SUPPDM.IDVARVAL"
      OrderNumber="5"
      Mandatory="No"
      Role="Identifier"
      RoleCodeListOID="RoleCodeList">
    </ItemRef>
    <ItemRef ItemOID="SUPPDM.QNAM"
      OrderNumber="6"
      Mandatory="Yes"
      Role="Topic"
      RoleCodeListOID="RoleCodeList">
    </ItemRef>
    <ItemRef ItemOID="SUPPDM.QLABEL"
      OrderNumber="7"
      Mandatory="Yes"
      Role="Variable Qualifier"
      RoleCodeListOID="RoleCodeList">
    </ItemRef>
    <ItemRef ItemOID="SUPPDM.QVAL"
      OrderNumber="8"
      Mandatory="Yes"
      Role="Result Qualifier"
      RoleCodeListOID="RoleCodeList">
    </ItemRef>
    <ItemRef ItemOID="SUPPDM.QORIG"
      OrderNumber="9"
      Mandatory="Yes"
      Role="Variable Qualifier"
      RoleCodeListOID="RoleCodeList">
    </ItemRef>
    <ItemRef ItemOID="SUPPDM.QEVAL"
      OrderNumber="10"
      Mandatory="No"
      Role="Record Qualifier"
      RoleCodeListOID="RoleCodeList">
    </ItemRef>
    <def:leaf ID="ArchiveLocation.SUPPDM"
      xlink:href="suppdm.xpt">
      <def:title>suppdm.xpt</def:title>
    </def:leaf>
</ItemGroupDef>
  <ItemGroupDef OID="SUPPDS"
    Name="SUPPDS"
    Repeating="Yes"
    IsReferenceData="No"
    Purpose="Tabulation"
    def:Label="Supplemental Qualifiers for DS"
    def:Structure="One record per IDVAR, IDVARVAL, and QNAM value per subject."
    def:DomainKeys="STUDYID, USUBJID, RDOMAIN, IDVAR, IDVARVAL, QNAM"
    def:Class="Relationship"
    def:ArchiveLocationID="ArchiveLocation.SUPPDS">
    <ItemRef ItemOID="SUPPDS.STUDYID"
      OrderNumber="1"
      Mandatory="Yes"
      Role="Identifier"
      RoleCodeListOID="RoleCodeList">
    </ItemRef>
    <ItemRef ItemOID="SUPPDS.RDOMAIN"
      OrderNumber="2"
      Mandatory="Yes"
      Role="Identifier"
      RoleCodeListOID="RoleCodeList">
    </ItemRef>
    <ItemRef ItemOID="SUPPDS.USUBJID"
      OrderNumber="3"
      Mandatory="Yes"
      Role="Identifier"
      RoleCodeListOID="RoleCodeList">
    </ItemRef>
    <ItemRef ItemOID="SUPPDS.IDVAR"
      OrderNumber="4"
      Mandatory="No"
      Role="Identifier"
      RoleCodeListOID="RoleCodeList">
    </ItemRef>
    <ItemRef ItemOID="SUPPDS.IDVARVAL"
      OrderNumber="5"
      Mandatory="No"
      Role="Identifier"
      RoleCodeListOID="RoleCodeList">
    </ItemRef>
    <ItemRef ItemOID="SUPPDS.QNAM"
      OrderNumber="6"
      Mandatory="Yes"
      Role="Topic"
      RoleCodeListOID="RoleCodeList">
    </ItemRef>
    <ItemRef ItemOID="SUPPDS.QLABEL"
      OrderNumber="7"
      Mandatory="Yes"
      Role="Variable Qualifier"
      RoleCodeListOID="RoleCodeList">
    </ItemRef>
    <ItemRef ItemOID="SUPPDS.QVAL"
      OrderNumber="8"
      Mandatory="Yes"
      Role="Result Qualifier"
      RoleCodeListOID="RoleCodeList">
    </ItemRef>
    <ItemRef ItemOID="SUPPDS.QORIG"
      OrderNumber="9"
      Mandatory="Yes"
      Role="Variable Qualifier"
      RoleCodeListOID="RoleCodeList">
    </ItemRef>
    <ItemRef ItemOID="SUPPDS.QEVAL"
      OrderNumber="10"
      Mandatory="No"
      Role="Record Qualifier"
      RoleCodeListOID="RoleCodeList">
    </ItemRef>
    <def:leaf ID="ArchiveLocation.SUPPDS"
      xlink:href="suppds.xpt">
      <def:title>suppds.xpt</def:title>
    </def:leaf>
</ItemGroupDef>
  <ItemGroupDef OID="SUPPEG"
    Name="SUPPEG"
    Repeating="Yes"
    IsReferenceData="No"
    Purpose="Tabulation"
    def:Label="Supplemental Qualifiers for EG"
    def:Structure="One record per IDVAR, IDVARVAL, and QNAM value per subject."
    def:DomainKeys="STUDYID, USUBJID, RDOMAIN, IDVAR, IDVARVAL, QNAM"
    def:Class="Relationship"
    def:ArchiveLocationID="ArchiveLocation.SUPPEG">
    <ItemRef ItemOID="SUPPEG.STUDYID"
      OrderNumber="1"
      Mandatory="Yes"
      Role="Identifier"
      RoleCodeListOID="RoleCodeList">
    </ItemRef>
    <ItemRef ItemOID="SUPPEG.RDOMAIN"
      OrderNumber="2"
      Mandatory="Yes"
      Role="Identifier"
      RoleCodeListOID="RoleCodeList">
    </ItemRef>
    <ItemRef ItemOID="SUPPEG.USUBJID"
      OrderNumber="3"
      Mandatory="Yes"
      Role="Identifier"
      RoleCodeListOID="RoleCodeList">
    </ItemRef>
    <ItemRef ItemOID="SUPPEG.IDVAR"
      OrderNumber="4"
      Mandatory="No"
      Role="Identifier"
      RoleCodeListOID="RoleCodeList">
    </ItemRef>
    <ItemRef ItemOID="SUPPEG.IDVARVAL"
      OrderNumber="5"
      Mandatory="No"
      Role="Identifier"
      RoleCodeListOID="RoleCodeList">
    </ItemRef>
    <ItemRef ItemOID="SUPPEG.QNAM"
      OrderNumber="6"
      Mandatory="Yes"
      Role="Topic"
      RoleCodeListOID="RoleCodeList">
    </ItemRef>
    <ItemRef ItemOID="SUPPEG.QLABEL"
      OrderNumber="7"
      Mandatory="Yes"
      Role="Variable Qualifier"
      RoleCodeListOID="RoleCodeList">
    </ItemRef>
    <ItemRef ItemOID="SUPPEG.QVAL"
      OrderNumber="8"
      Mandatory="Yes"
      Role="Result Qualifier"
      RoleCodeListOID="RoleCodeList">
    </ItemRef>
    <ItemRef ItemOID="SUPPEG.QORIG"
      OrderNumber="9"
      Mandatory="Yes"
      Role="Variable Qualifier"
      RoleCodeListOID="RoleCodeList">
    </ItemRef>
    <ItemRef ItemOID="SUPPEG.QEVAL"
      OrderNumber="10"
      Mandatory="No"
      Role="Record Qualifier"
      RoleCodeListOID="RoleCodeList">
    </ItemRef>
    <def:leaf ID="ArchiveLocation.SUPPEG"
      xlink:href="suppeg.xpt">
      <def:title>suppeg.xpt</def:title>
    </def:leaf>
</ItemGroupDef>
  <ItemGroupDef OID="SUPPEX"
    Name="SUPPEX"
    Repeating="Yes"
    IsReferenceData="No"
    Purpose="Tabulation"
    def:Label="Supplemental Qualifiers for EX"
    def:Structure="One record per IDVAR, IDVARVAL, and QNAM value per subject."
    def:DomainKeys="STUDYID, USUBJID, RDOMAIN, IDVAR, IDVARVAL, QNAM"
    def:Class="Relationship"
    def:ArchiveLocationID="ArchiveLocation.SUPPEX">
    <ItemRef ItemOID="SUPPEX.STUDYID"
      OrderNumber="1"
      Mandatory="Yes"
      Role="Identifier"
      RoleCodeListOID="RoleCodeList">
    </ItemRef>
    <ItemRef ItemOID="SUPPEX.RDOMAIN"
      OrderNumber="2"
      Mandatory="Yes"
      Role="Identifier"
      RoleCodeListOID="RoleCodeList">
    </ItemRef>
    <ItemRef ItemOID="SUPPEX.USUBJID"
      OrderNumber="3"
      Mandatory="Yes"
      Role="Identifier"
      RoleCodeListOID="RoleCodeList">
    </ItemRef>
    <ItemRef ItemOID="SUPPEX.IDVAR"
      OrderNumber="4"
      Mandatory="No"
      Role="Identifier"
      RoleCodeListOID="RoleCodeList">
    </ItemRef>
    <ItemRef ItemOID="SUPPEX.IDVARVAL"
      OrderNumber="5"
      Mandatory="No"
      Role="Identifier"
      RoleCodeListOID="RoleCodeList">
    </ItemRef>
    <ItemRef ItemOID="SUPPEX.QNAM"
      OrderNumber="6"
      Mandatory="Yes"
      Role="Topic"
      RoleCodeListOID="RoleCodeList">
    </ItemRef>
    <ItemRef ItemOID="SUPPEX.QLABEL"
      OrderNumber="7"
      Mandatory="Yes"
      Role="Variable Qualifier"
      RoleCodeListOID="RoleCodeList">
    </ItemRef>
    <ItemRef ItemOID="SUPPEX.QVAL"
      OrderNumber="8"
      Mandatory="Yes"
      Role="Result Qualifier"
      RoleCodeListOID="RoleCodeList">
    </ItemRef>
    <ItemRef ItemOID="SUPPEX.QORIG"
      OrderNumber="9"
      Mandatory="Yes"
      Role="Variable Qualifier"
      RoleCodeListOID="RoleCodeList">
    </ItemRef>
    <ItemRef ItemOID="SUPPEX.QEVAL"
      OrderNumber="10"
      Mandatory="No"
      Role="Record Qualifier"
      RoleCodeListOID="RoleCodeList">
    </ItemRef>
    <def:leaf ID="ArchiveLocation.SUPPEX"
      xlink:href="suppex.xpt">
      <def:title>suppex.xpt</def:title>
    </def:leaf>
</ItemGroupDef>
  <ItemGroupDef OID="SUPPFA"
    Name="SUPPFA"
    Repeating="Yes"
    IsReferenceData="No"
    Purpose="Tabulation"
    def:Label="Supplemental Qualifiers for FA"
    def:Structure="One record per IDVAR, IDVARVAL, and QNAM value per subject."
    def:DomainKeys="STUDYID, USUBJID, RDOMAIN, IDVAR, IDVARVAL, QNAM"
    def:Class="Relationship"
    def:ArchiveLocationID="ArchiveLocation.SUPPFA">
    <ItemRef ItemOID="SUPPFA.STUDYID"
      OrderNumber="1"
      Mandatory="Yes"
      Role="Identifier"
      RoleCodeListOID="RoleCodeList">
    </ItemRef>
    <ItemRef ItemOID="SUPPFA.RDOMAIN"
      OrderNumber="2"
      Mandatory="Yes"
      Role="Identifier"
      RoleCodeListOID="RoleCodeList">
    </ItemRef>
    <ItemRef ItemOID="SUPPFA.USUBJID"
      OrderNumber="3"
      Mandatory="Yes"
      Role="Identifier"
      RoleCodeListOID="RoleCodeList">
    </ItemRef>
    <ItemRef ItemOID="SUPPFA.IDVAR"
      OrderNumber="4"
      Mandatory="No"
      Role="Identifier"
      RoleCodeListOID="RoleCodeList">
    </ItemRef>
    <ItemRef ItemOID="SUPPFA.IDVARVAL"
      OrderNumber="5"
      Mandatory="No"
      Role="Identifier"
      RoleCodeListOID="RoleCodeList">
    </ItemRef>
    <ItemRef ItemOID="SUPPFA.QNAM"
      OrderNumber="6"
      Mandatory="Yes"
      Role="Topic"
      RoleCodeListOID="RoleCodeList">
    </ItemRef>
    <ItemRef ItemOID="SUPPFA.QLABEL"
      OrderNumber="7"
      Mandatory="Yes"
      Role="Variable Qualifier"
      RoleCodeListOID="RoleCodeList">
    </ItemRef>
    <ItemRef ItemOID="SUPPFA.QVAL"
      OrderNumber="8"
      Mandatory="Yes"
      Role="Result Qualifier"
      RoleCodeListOID="RoleCodeList">
    </ItemRef>
    <ItemRef ItemOID="SUPPFA.QORIG"
      OrderNumber="9"
      Mandatory="Yes"
      Role="Variable Qualifier"
      RoleCodeListOID="RoleCodeList">
    </ItemRef>
    <ItemRef ItemOID="SUPPFA.QEVAL"
      OrderNumber="10"
      Mandatory="No"
      Role="Record Qualifier"
      RoleCodeListOID="RoleCodeList">
    </ItemRef>
    <def:leaf ID="ArchiveLocation.SUPPFA"
      xlink:href="suppfa.xpt">
      <def:title>suppfa.xpt</def:title>
    </def:leaf>
</ItemGroupDef>
  <ItemGroupDef OID="SUPPLB"
    Name="SUPPLB"
    Repeating="Yes"
    IsReferenceData="No"
    Purpose="Tabulation"
    def:Label="Supplemental Qualifiers for LB"
    def:Structure="One record per IDVAR, IDVARVAL, and QNAM value per subject."
    def:DomainKeys="STUDYID, USUBJID, RDOMAIN, IDVAR, IDVARVAL, QNAM"
    def:Class="Relationship"
    def:ArchiveLocationID="ArchiveLocation.SUPPLB">
    <ItemRef ItemOID="SUPPLB.STUDYID"
      OrderNumber="1"
      Mandatory="Yes"
      Role="Identifier"
      RoleCodeListOID="RoleCodeList">
    </ItemRef>
    <ItemRef ItemOID="SUPPLB.RDOMAIN"
      OrderNumber="2"
      Mandatory="Yes"
      Role="Identifier"
      RoleCodeListOID="RoleCodeList">
    </ItemRef>
    <ItemRef ItemOID="SUPPLB.USUBJID"
      OrderNumber="3"
      Mandatory="Yes"
      Role="Identifier"
      RoleCodeListOID="RoleCodeList">
    </ItemRef>
    <ItemRef ItemOID="SUPPLB.IDVAR"
      OrderNumber="4"
      Mandatory="No"
      Role="Identifier"
      RoleCodeListOID="RoleCodeList">
    </ItemRef>
    <ItemRef ItemOID="SUPPLB.IDVARVAL"
      OrderNumber="5"
      Mandatory="No"
      Role="Identifier"
      RoleCodeListOID="RoleCodeList">
    </ItemRef>
    <ItemRef ItemOID="SUPPLB.QNAM"
      OrderNumber="6"
      Mandatory="Yes"
      Role="Topic"
      RoleCodeListOID="RoleCodeList">
    </ItemRef>
    <ItemRef ItemOID="SUPPLB.QLABEL"
      OrderNumber="7"
      Mandatory="Yes"
      Role="Variable Qualifier"
      RoleCodeListOID="RoleCodeList">
    </ItemRef>
    <ItemRef ItemOID="SUPPLB.QVAL"
      OrderNumber="8"
      Mandatory="Yes"
      Role="Result Qualifier"
      RoleCodeListOID="RoleCodeList">
    </ItemRef>
    <ItemRef ItemOID="SUPPLB.QORIG"
      OrderNumber="9"
      Mandatory="Yes"
      Role="Variable Qualifier"
      RoleCodeListOID="RoleCodeList">
    </ItemRef>
    <ItemRef ItemOID="SUPPLB.QEVAL"
      OrderNumber="10"
      Mandatory="No"
      Role="Record Qualifier"
      RoleCodeListOID="RoleCodeList">
    </ItemRef>
    <def:leaf ID="ArchiveLocation.SUPPLB"
      xlink:href="supplb.xpt">
      <def:title>supplb.xpt</def:title>
    </def:leaf>
</ItemGroupDef>
  <ItemGroupDef OID="SUPPMH"
    Name="SUPPMH"
    Repeating="Yes"
    IsReferenceData="No"
    Purpose="Tabulation"
    def:Label="Supplemental Qualifiers for MH"
    def:Structure="One record per IDVAR, IDVARVAL, and QNAM value per subject."
    def:DomainKeys="STUDYID, USUBJID, RDOMAIN, IDVAR, IDVARVAL, QNAM"
    def:Class="Relationship"
    def:ArchiveLocationID="ArchiveLocation.SUPPMH">
    <ItemRef ItemOID="SUPPMH.STUDYID"
      OrderNumber="1"
      Mandatory="Yes"
      Role="Identifier"
      RoleCodeListOID="RoleCodeList">
    </ItemRef>
    <ItemRef ItemOID="SUPPMH.RDOMAIN"
      OrderNumber="2"
      Mandatory="Yes"
      Role="Identifier"
      RoleCodeListOID="RoleCodeList">
    </ItemRef>
    <ItemRef ItemOID="SUPPMH.USUBJID"
      OrderNumber="3"
      Mandatory="Yes"
      Role="Identifier"
      RoleCodeListOID="RoleCodeList">
    </ItemRef>
    <ItemRef ItemOID="SUPPMH.IDVAR"
      OrderNumber="4"
      Mandatory="No"
      Role="Identifier"
      RoleCodeListOID="RoleCodeList">
    </ItemRef>
    <ItemRef ItemOID="SUPPMH.IDVARVAL"
      OrderNumber="5"
      Mandatory="No"
      Role="Identifier"
      RoleCodeListOID="RoleCodeList">
    </ItemRef>
    <ItemRef ItemOID="SUPPMH.QNAM"
      OrderNumber="6"
      Mandatory="Yes"
      Role="Topic"
      RoleCodeListOID="RoleCodeList">
    </ItemRef>
    <ItemRef ItemOID="SUPPMH.QLABEL"
      OrderNumber="7"
      Mandatory="Yes"
      Role="Variable Qualifier"
      RoleCodeListOID="RoleCodeList">
    </ItemRef>
    <ItemRef ItemOID="SUPPMH.QVAL"
      OrderNumber="8"
      Mandatory="Yes"
      Role="Result Qualifier"
      RoleCodeListOID="RoleCodeList">
    </ItemRef>
    <ItemRef ItemOID="SUPPMH.QORIG"
      OrderNumber="9"
      Mandatory="Yes"
      Role="Variable Qualifier"
      RoleCodeListOID="RoleCodeList">
    </ItemRef>
    <ItemRef ItemOID="SUPPMH.QEVAL"
      OrderNumber="10"
      Mandatory="No"
      Role="Record Qualifier"
      RoleCodeListOID="RoleCodeList">
    </ItemRef>
    <def:leaf ID="ArchiveLocation.SUPPMH"
      xlink:href="suppmh.xpt">
      <def:title>suppmh.xpt</def:title>
    </def:leaf>
</ItemGroupDef>
  <ItemGroupDef OID="SUPPPC"
    Name="SUPPPC"
    Repeating="Yes"
    IsReferenceData="No"
    Purpose="Tabulation"
    def:Label="Supplemental Qualifiers for PC"
    def:Structure="One record per IDVAR, IDVARVAL, and QNAM value per subject."
    def:DomainKeys="STUDYID, USUBJID, RDOMAIN, IDVAR, IDVARVAL, QNAM"
    def:Class="Relationship"
    def:ArchiveLocationID="ArchiveLocation.SUPPPC">
    <ItemRef ItemOID="SUPPPC.STUDYID"
      OrderNumber="1"
      Mandatory="Yes"
      Role="Identifier"
      RoleCodeListOID="RoleCodeList">
    </ItemRef>
    <ItemRef ItemOID="SUPPPC.RDOMAIN"
      OrderNumber="2"
      Mandatory="Yes"
      Role="Identifier"
      RoleCodeListOID="RoleCodeList">
    </ItemRef>
    <ItemRef ItemOID="SUPPPC.USUBJID"
      OrderNumber="3"
      Mandatory="Yes"
      Role="Identifier"
      RoleCodeListOID="RoleCodeList">
    </ItemRef>
    <ItemRef ItemOID="SUPPPC.IDVAR"
      OrderNumber="4"
      Mandatory="No"
      Role="Identifier"
      RoleCodeListOID="RoleCodeList">
    </ItemRef>
    <ItemRef ItemOID="SUPPPC.IDVARVAL"
      OrderNumber="5"
      Mandatory="No"
      Role="Identifier"
      RoleCodeListOID="RoleCodeList">
    </ItemRef>
    <ItemRef ItemOID="SUPPPC.QNAM"
      OrderNumber="6"
      Mandatory="Yes"
      Role="Topic"
      RoleCodeListOID="RoleCodeList">
    </ItemRef>
    <ItemRef ItemOID="SUPPPC.QLABEL"
      OrderNumber="7"
      Mandatory="Yes"
      Role="Variable Qualifier"
      RoleCodeListOID="RoleCodeList">
    </ItemRef>
    <ItemRef ItemOID="SUPPPC.QVAL"
      OrderNumber="8"
      Mandatory="Yes"
      Role="Result Qualifier"
      RoleCodeListOID="RoleCodeList">
    </ItemRef>
    <ItemRef ItemOID="SUPPPC.QORIG"
      OrderNumber="9"
      Mandatory="Yes"
      Role="Variable Qualifier"
      RoleCodeListOID="RoleCodeList">
    </ItemRef>
    <ItemRef ItemOID="SUPPPC.QEVAL"
      OrderNumber="10"
      Mandatory="No"
      Role="Record Qualifier"
      RoleCodeListOID="RoleCodeList">
    </ItemRef>
    <def:leaf ID="ArchiveLocation.SUPPPC"
      xlink:href="supppc.xpt">
      <def:title>supppc.xpt</def:title>
    </def:leaf>
</ItemGroupDef>
  <!-- ************************************************** -->
  <!-- Details of each variable are here for all domains  -->
  <!-- ************************************************** -->
  <ItemDef OID="TA.STUDYID"
      Name="STUDYID"
      DataType="text"
      Length="11"
      Origin="Protocol"
      Comment="Set to &apos;H9X-MC-GBCK&apos;."
      def:Label="Study Identifier"
      >
  </ItemDef>
  <ItemDef OID="TA.DOMAIN"
      Name="DOMAIN"
      DataType="text"
      Length="2"
      Origin="Assigned"
      Comment="Set to &apos;TA&apos;."
      def:Label="Domain Abbreviation"
      >
  </ItemDef>
  <ItemDef OID="TA.ARMCD"
      Name="ARMCD"
      DataType="text"
      Length="3"
      Origin="Assigned"
      def:Label="Planned Arm Code"
      >
    <CodeListRef CodeListOID="ARM_F"/>
  </ItemDef>
  <ItemDef OID="TA.ARM"
      Name="ARM"
      DataType="text"
      Length="19"
      Origin="Assigned"
      def:Label="Description of Planned Arm"
      >
  </ItemDef>
  <ItemDef OID="TA.TAETORD"
      Name="TAETORD"
      DataType="integer"
      Length="8"
      Origin="Assigned"
      def:Label="Order of Element within Arm"
      >
  </ItemDef>
  <ItemDef OID="TA.ETCD"
      Name="ETCD"
      DataType="text"
      Length="7"
      Origin="Assigned"
      def:Label="Element Code"
      >
    <CodeListRef CodeListOID="ETCD_F"/>
  </ItemDef>
  <ItemDef OID="TA.ELEMENT"
      Name="ELEMENT"
      DataType="text"
      Length="21"
      Origin="Assigned"
      def:Label="Description of Element"
      >
  </ItemDef>
  <ItemDef OID="TA.TABRANCH"
      Name="TABRANCH"
      DataType="text"
      Length="29"
      Origin="Protocol"
      def:Label="Branch"
      >
  </ItemDef>
  <ItemDef OID="TA.TATRANS"
      Name="TATRANS"
      DataType="text"
      Length="105"
      Origin="Protocol"
      def:Label="Transition Rule"
      >
  </ItemDef>
  <ItemDef OID="TA.EPOCH"
      Name="EPOCH"
      DataType="text"
      Length="27"
      Origin="Assigned"
      def:Label="Epoch"
      >
    <CodeListRef CodeListOID="EPOCH_F"/>
  </ItemDef>
  <ItemDef OID="TE.STUDYID"
      Name="STUDYID"
      DataType="text"
      Length="11"
      Origin="Protocol"
      Comment="Set to &apos;H9X-MC-GBCK&apos;."
      def:Label="Study Identifier"
      >
  </ItemDef>
  <ItemDef OID="TE.DOMAIN"
      Name="DOMAIN"
      DataType="text"
      Length="2"
      Origin="Assigned"
      Comment="Set to &apos;TE&apos;."
      def:Label="Domain Abbreviation"
      >
  </ItemDef>
  <ItemDef OID="TE.ETCD"
      Name="ETCD"
      DataType="text"
      Length="7"
      Origin="Assigned"
      def:Label="Element Code"
      >
    <CodeListRef CodeListOID="ETCD_F"/>
  </ItemDef>
  <ItemDef OID="TE.ELEMENT"
      Name="ELEMENT"
      DataType="text"
      Length="21"
      Origin="Assigned"
      def:Label="Description of Element"
      >
  </ItemDef>
  <ItemDef OID="TE.TESTRL"
      Name="TESTRL"
      DataType="text"
      Length="49"
      Origin="Protocol"
      def:Label="Rule for Start of Element"
      >
  </ItemDef>
  <ItemDef OID="TE.TEENRL"
      Name="TEENRL"
      DataType="text"
      Length="29"
      Origin="Protocol"
      def:Label="Rule for End of Element"
      >
  </ItemDef>
  <ItemDef OID="TE.TEDUR"
      Name="TEDUR"
      DataType="text"
      Length="4"
      Origin="Assigned"
      def:Label="Planned Duration of Element"
      >
    <CodeListRef CodeListOID="ISO8601"/>
  </ItemDef>
  <ItemDef OID="TI.STUDYID"
      Name="STUDYID"
      DataType="text"
      Length="11"
      Origin="Protocol"
      Comment="Set to &apos;H9X-MC-GBCK&apos;."
      def:Label="Study Identifier"
      >
  </ItemDef>
  <ItemDef OID="TI.DOMAIN"
      Name="DOMAIN"
      DataType="text"
      Length="2"
      Origin="Assigned"
      Comment="Set to &apos;TI&apos;."
      def:Label="Domain Abbreviation"
      >
  </ItemDef>
  <ItemDef OID="TI.IETESTCD"
      Name="IETESTCD"
      DataType="text"
      Length="6"
      Origin="Assigned"
      def:Label="Incl/Excl Criterion Short Name"
      >
    <def:ValueListRef ValueListOID="TI.IETESTCD"/>
  </ItemDef>
  <ItemDef OID="TI.IETEST"
      Name="IETEST"
      DataType="text"
      Length="200"
      Origin="Protocol"
      def:Label="Inclusion/Exclusion Criterion"
      >
  </ItemDef>
  <ItemDef OID="TI.IECAT"
      Name="IECAT"
      DataType="text"
      Length="9"
      Origin="Protocol"
      def:Label="Inclusion/Exclusion Category"
      >
    <CodeListRef CodeListOID="TICAT_F"/>
  </ItemDef>
  <ItemDef OID="TI.IESCAT"
      Name="IESCAT"
      DataType="text"
      Length="1"
      Origin="Assigned"
      Comment="Null for all records."
      def:Label="Inclusion/Exclusion Subcategory"
      >
  </ItemDef>
  <ItemDef OID="TI.TIRL"
      Name="TIRL"
      DataType="text"
      Length="1"
      Origin="Assigned"
      Comment="Null for all records."
      def:Label="Inclusion/Exclusion Criterion Rule"
      >
  </ItemDef>
  <ItemDef OID="TI.TIVERS"
      Name="TIVERS"
      DataType="text"
      Length="1"
      Origin="Protocol"
      def:Label="Protocol Criteria Versions"
      >
  </ItemDef>
  <ItemDef OID="TS.STUDYID"
      Name="STUDYID"
      DataType="text"
      Length="11"
      Origin="Protocol"
      Comment="Set to &apos;H9X-MC-GBCK&apos;."
      def:Label="Study Identifier"
      >
  </ItemDef>
  <ItemDef OID="TS.DOMAIN"
      Name="DOMAIN"
      DataType="text"
      Length="2"
      Origin="Assigned"
      Comment="Set to &apos;TS&apos;."
      def:Label="Domain Abbreviation"
      >
  </ItemDef>
  <ItemDef OID="TS.TSSEQ"
      Name="TSSEQ"
      DataType="integer"
      Length="8"
      Origin="Assigned"
      Comment="Sequence number assigned to be unique within the domain and TSPARMCD."
      def:Label="Sequence Number"
      >
  </ItemDef>
  <ItemDef OID="TS.TSGRPID"
      Name="TSGRPID"
      DataType="text"
      Length="1"
      Origin="Assigned"
      Comment="Null for all records."
      def:Label="Group ID"
      >
  </ItemDef>
  <ItemDef OID="TS.TSPARMCD"
      Name="TSPARMCD"
      DataType="text"
      Length="7"
      Origin="Assigned"
      def:Label="Trial Summary Parameter Short Name"
      >
    <CodeListRef CodeListOID="TSPARMCD_F"/>
  </ItemDef>
  <ItemDef OID="TS.TSPARM"
      Name="TSPARM"
      DataType="text"
      Length="31"
      Origin="Assigned"
      def:Label="Trial Summary Parameter"
      >
  </ItemDef>
  <ItemDef OID="TS.TSVAL"
      Name="TSVAL"
      DataType="text"
      Length="198"
      Origin="Protocol"
      def:Label="Parameter Value"
      >
  </ItemDef>
  <ItemDef OID="TS.TSVAL1"
      Name="TSVAL1"
      DataType="text"
      Length="187"
      Origin="Protocol"
      def:Label="Parameter Value"
      >
  </ItemDef>
  <ItemDef OID="TS.TSVAL2"
      Name="TSVAL2"
      DataType="text"
      Length="187"
      Origin="Protocol"
      def:Label="Parameter Value"
      >
  </ItemDef>
  <ItemDef OID="TV.STUDYID"
      Name="STUDYID"
      DataType="text"
      Length="11"
      Origin="Protocol"
      Comment="Set to &apos;H9X-MC-GBCK&apos;."
      def:Label="Study Identifier"
      >
  </ItemDef>
  <ItemDef OID="TV.DOMAIN"
      Name="DOMAIN"
      DataType="text"
      Length="2"
      Origin="Assigned"
      Comment="Set to &apos;TV&apos;."
      def:Label="Domain Abbreviation"
      >
  </ItemDef>
  <ItemDef OID="TV.VISITNUM"
      Name="VISITNUM"
      DataType="integer"
      Length="8"
      Origin="Assigned"
      Comment="Numeric equivalent of alphanumeric variable VISIT."
      def:Label="Visit Number"
      >
    <CodeListRef CodeListOID="VIS_F"/>
  </ItemDef>
  <ItemDef OID="TV.VISIT"
      Name="VISIT"
      DataType="text"
      Length="21"
      Origin="Assigned"
      def:Label="Visit Name"
      >
    <CodeListRef CodeListOID="VISIT_F"/>
  </ItemDef>
  <ItemDef OID="TV.VISITDY"
      Name="VISITDY"
      DataType="integer"
      Length="8"
      Origin="Assigned"
      def:Label="Planned Study Day of Visit"
      >
  </ItemDef>
  <ItemDef OID="TV.ARMCD"
      Name="ARMCD"
      DataType="text"
      Length="1"
      Origin="Assigned"
      Comment="Null for all records."
      def:Label="Planned Arm Code"
      >
  </ItemDef>
  <ItemDef OID="TV.ARM"
      Name="ARM"
      DataType="text"
      Length="1"
      Origin="Assigned"
      Comment="Null for all records."
      def:Label="Description of Planned Arm"
      >
  </ItemDef>
  <ItemDef OID="TV.TVSTRL"
      Name="TVSTRL"
      DataType="text"
      Length="27"
      Origin="Protocol"
      def:Label="Visit Start Rule"
      >
  </ItemDef>
  <ItemDef OID="TV.TVENRL"
      Name="TVENRL"
      DataType="text"
      Length="29"
      Origin="Protocol"
      def:Label="Visit End Rule"
      >
  </ItemDef>
  <ItemDef OID="CO.STUDYID"
      Name="STUDYID"
      DataType="text"
      Length="11"
      Origin="Protocol"
      Comment="Set to &apos;H9X-MC-GBCK&apos;."
      def:Label="Study Identifier"
      >
  </ItemDef>
  <ItemDef OID="CO.DOMAIN"
      Name="DOMAIN"
      DataType="text"
      Length="2"
      Origin="Assigned"
      Comment="Set to &apos;CO&apos;."
      def:Label="Domain Abbreviation"
      >
  </ItemDef>
  <ItemDef OID="CO.RDOMAIN"
      Name="RDOMAIN"
      DataType="text"
      Length="2"
      Origin="Assigned"
      Comment="If the value of COVAL is mapped from the EG dataset, then RDOMAIN is set equal to EG. Otherwise, RDOMAIN is set equal to  (Blank)."
      def:Label="Related Domain Abbreviation"
      >
  </ItemDef>
  <ItemDef OID="CO.USUBJID"
      Name="USUBJID"
      DataType="text"
      Length="21"
      Origin="Derived"
      Comment="Concatenation of STUDYID, INVID and SUBJID."
      def:Label="Unique Subject Identifier"
      >
  </ItemDef>
  <ItemDef OID="CO.COSEQ"
      Name="COSEQ"
      DataType="integer"
      Length="8"
      Origin="Derived"
      Comment="Sequence number assigned to be unique within the domain and USUBJID and assigned according to record sequence as determined by designated key variables for the domain."
      def:Label="Sequence Number"
      >
  </ItemDef>
  <ItemDef OID="CO.COGRPID"
      Name="COGRPID"
      DataType="text"
      Length="1"
      Origin="Assigned"
      Comment="COGRPID = COSEQ."
      def:Label="Group ID"
      >
  </ItemDef>
  <ItemDef OID="CO.IDVAR"
      Name="IDVAR"
      DataType="text"
      Length="5"
      Origin="Assigned"
      def:Label="Identifying Variable"
      >
  </ItemDef>
  <ItemDef OID="CO.IDVARVAL"
      Name="IDVARVAL"
      DataType="text"
      Length="3"
      Origin="Assigned"
      Comment="Equivalent to corresponding domain SEQ or REFID."
      def:Label="Identifying Variable Value"
      >
  </ItemDef>
  <ItemDef OID="CO.COREF"
      Name="COREF"
      DataType="text"
      Length="1"
      Origin="Assigned"
      Comment="Null for all records."
      def:Label="Comment Reference"
      >
  </ItemDef>
  <ItemDef OID="CO.COVAL"
      Name="COVAL"
      DataType="text"
      Length="200"
      Origin="eDT, CRF Page 47"
      def:Label="Comment"
      >
  </ItemDef>
  <ItemDef OID="CO.COVAL1"
      Name="COVAL1"
      DataType="text"
      Length="200"
      Origin="eDT"
      def:Label="Comment"
      >
  </ItemDef>
  <ItemDef OID="CO.COVAL2"
      Name="COVAL2"
      DataType="text"
      Length="105"
      Origin="eDT"
      def:Label="Comment"
      >
  </ItemDef>
  <ItemDef OID="CO.COEVAL"
      Name="COEVAL"
      DataType="text"
      Length="11"
      Origin="Assigned"
      def:Label="Evaluator"
      >
  </ItemDef>
  <ItemDef OID="CO.CODTC"
      Name="CODTC"
      DataType="text"
      Length="1"
      Origin="Assigned"
      Comment="Null for all records."
      def:Label="Date/Time of Comment"
      >
    <CodeListRef CodeListOID="ISO8601"/>
  </ItemDef>
  <ItemDef OID="DM.STUDYID"
      Name="STUDYID"
      DataType="text"
      Length="11"
      Origin="Protocol"
      Comment="Set to &apos;H9X-MC-GBCK&apos;."
      def:Label="Study Identifier"
      >
  </ItemDef>
  <ItemDef OID="DM.DOMAIN"
      Name="DOMAIN"
      DataType="text"
      Length="2"
      Origin="Assigned"
      Comment="Set to &apos;DM&apos;."
      def:Label="Domain Abbreviation"
      >
  </ItemDef>
  <ItemDef OID="DM.USUBJID"
      Name="USUBJID"
      DataType="text"
      Length="21"
      Origin="Derived"
      Comment="Concatenation of STUDYID, INVID and SUBJID."
      def:Label="Unique Subject Identifier"
      >
  </ItemDef>
  <ItemDef OID="DM.SUBJID"
      Name="SUBJID"
      DataType="text"
      Length="5"
      Origin="CRF Page 7"
      def:Label="Subject Identifier for the Study"
      >
  </ItemDef>
  <ItemDef OID="DM.RFSTDTC"
      Name="RFSTDTC"
      DataType="text"
      Length="10"
      Origin="Derived"
      Comment="Equal to the first study drug  date/time.  Null for screen failures and for subjects who discontinued prior to  first study drug,"
      def:Label="Subject Reference Start Date/Time"
      >
    <CodeListRef CodeListOID="ISO8601"/>
  </ItemDef>
  <ItemDef OID="DM.RFENDTC"
      Name="RFENDTC"
      DataType="text"
      Length="10"
      Origin="Derived"
      Comment="Equal to the last Disposition Date"
      def:Label="Subject Reference End Date/Time"
      >
    <CodeListRef CodeListOID="ISO8601"/>
  </ItemDef>
  <ItemDef OID="DM.RFXSTDTC"
      Name="RFXSTDTC"
      DataType="text"
      Length="10"
      Origin="CRF Page 39"
      def:Label="Date/Time of First Study Treatment"
      >
    <CodeListRef CodeListOID="ISO8601"/>
  </ItemDef>
  <ItemDef OID="DM.RFXENDTC"
      Name="RFXENDTC"
      DataType="text"
      Length="10"
      Origin="CRF Page 43"
      def:Label="Date/Time of Last Study Treatment"
      >
    <CodeListRef CodeListOID="ISO8601"/>
  </ItemDef>
  <ItemDef OID="DM.RFICDTC"
      Name="RFICDTC"
      DataType="text"
      Length="10"
      Origin="CRF Page 7"
      def:Label="Date/Time of Informed Consent"
      >
    <CodeListRef CodeListOID="ISO8601"/>
  </ItemDef>
  <ItemDef OID="DM.RFPENDTC"
      Name="RFPENDTC"
      DataType="text"
      Length="10"
      Origin="Derived"
      Comment="Equal to the last Disposition Date"
      def:Label="Date/Time of End of Participation"
      >
    <CodeListRef CodeListOID="ISO8601"/>
  </ItemDef>
  <ItemDef OID="DM.DTHDTC"
      Name="DTHDTC"
      DataType="text"
      Length="1"
      Origin="CRF Pages 33, 45"
      def:Label="Date/Time of Death"
      >
    <CodeListRef CodeListOID="ISO8601"/>
  </ItemDef>
  <ItemDef OID="DM.DTHFL"
      Name="DTHFL"
      DataType="text"
      Length="1"
      Origin="Assigned"
      def:Label="Subject Death Flag"
      >
    <CodeListRef CodeListOID="Y_F"/>
  </ItemDef>
  <ItemDef OID="DM.SITEID"
      Name="SITEID"
      DataType="text"
      Length="3"
      Origin="Derived"
      Comment="Unique identifier for a site within a study."
      def:Label="Study Site Identifier"
      >
  </ItemDef>
  <ItemDef OID="DM.INVID"
      Name="INVID"
      DataType="text"
      Length="6"
      Origin="eDT"
      def:Label="Investigator Identifier"
      >
  </ItemDef>
  <ItemDef OID="DM.INVNAM"
      Name="INVNAM"
      DataType="text"
      Length="36"
      Origin="eDT"
      def:Label="Investigator Name"
      >
  </ItemDef>
  <ItemDef OID="DM.BRTHDTC"
      Name="BRTHDTC"
      DataType="text"
      Length="4"
      Origin="CRF Page 8"
      def:Label="Date/Time of Birth"
      >
    <CodeListRef CodeListOID="ISO8601"/>
  </ItemDef>
  <ItemDef OID="DM.AGE"
      Name="AGE"
      DataType="integer"
      Length="8"
      Origin="Derived"
      Comment="Age at Reference Start Date (RFSTDTC). Null for Screen Failures and subjects who discontinue prior to treatment start."
      def:Label="Age"
      >
  </ItemDef>
  <ItemDef OID="DM.AGEU"
      Name="AGEU"
      DataType="text"
      Length="5"
      Origin="Assigned"
      def:Label="Age Units"
      >
    <CodeListRef CodeListOID="AGEU_F"/>
  </ItemDef>
  <ItemDef OID="DM.SEX"
      Name="SEX"
      DataType="text"
      Length="1"
      Origin="CRF Page 8"
      def:Label="Sex"
      >
    <CodeListRef CodeListOID="SEX_F"/>
  </ItemDef>
  <ItemDef OID="DM.RACE"
      Name="RACE"
      DataType="text"
      Length="41"
      Origin="CRF Page 8"
      def:Label="Race"
      >
    <CodeListRef CodeListOID="RACE_F"/>
  </ItemDef>
  <ItemDef OID="DM.ETHNIC"
      Name="ETHNIC"
      DataType="text"
      Length="22"
      Origin="CRF Page 8"
      def:Label="Ethnicity"
      >
    <CodeListRef CodeListOID="ETHNIC_F"/>
  </ItemDef>
  <ItemDef OID="DM.ARMCD"
      Name="ARMCD"
      DataType="text"
      Length="8"
      Origin="Derived"
      Comment="Treatment group to which the subject was randomized. If subject was not randomized, ARMCD = &apos;NOTASSGN&apos;. If subject was not enrolled in the study, then ARMCD = &apos;SCRNFAIL."
      def:Label="Planned Arm Code"
      >
    <CodeListRef CodeListOID="ARM_F"/>
  </ItemDef>
  <ItemDef OID="DM.ARM"
      Name="ARM"
      DataType="text"
      Length="19"
      Origin="Derived"
      Comment="Treatment group to which the subject was randomized. If subject was not randomized, ARM = &apos;NOT ASSIGNED&apos;. If subject was not enrolled in the study, then ARM = &apos;SCREEN FAILURE."
      def:Label="Description of Planned Arm"
      >
  </ItemDef>
  <ItemDef OID="DM.ACTARMCD"
      Name="ACTARMCD"
      DataType="text"
      Length="8"
      Origin="Derived"
      Comment="Populated with the value found in ARMCD."
      def:Label="Actual Arm Code"
      >
    <CodeListRef CodeListOID="ARM_F"/>
  </ItemDef>
  <ItemDef OID="DM.ACTARM"
      Name="ACTARM"
      DataType="text"
      Length="19"
      Origin="Derived"
      Comment="Populated with the value found in ARM."
      def:Label="Description of Actual Arm"
      >
  </ItemDef>
  <ItemDef OID="DM.COUNTRY"
      Name="COUNTRY"
      DataType="text"
      Length="3"
      Origin="eDT"
      def:Label="Country"
      >
    <CodeListRef CodeListOID="ISO3166"/>
  </ItemDef>
  <ItemDef OID="RELREC.STUDYID"
      Name="STUDYID"
      DataType="text"
      Length="11"
      Origin="Protocol"
      Comment="Set to &apos;H9X-MC-GBCK&apos;."
      def:Label="Study Identifier"
      >
  </ItemDef>
  <ItemDef OID="RELREC.RDOMAIN"
      Name="RDOMAIN"
      DataType="text"
      Length="2"
      Origin="Assigned"
      Comment="Equal to the domain of the parent record."
      def:Label="Related Domain Abbreviation"
      >
  </ItemDef>
  <ItemDef OID="RELREC.USUBJID"
      Name="USUBJID"
      DataType="text"
      Length="21"
      Origin="Derived"
      Comment="Concatenation of STUDYID, INVID and SUBJID."
      def:Label="Unique Subject Identifier"
      >
  </ItemDef>
  <ItemDef OID="RELREC.IDVAR"
      Name="IDVAR"
      DataType="text"
      Length="5"
      Origin="Assigned"
      def:Label="Identifying Variable"
      >
  </ItemDef>
  <ItemDef OID="RELREC.IDVARVAL"
      Name="IDVARVAL"
      DataType="text"
      Length="1"
      Origin="Derived"
      Comment="Equivalent Sequence Number or Group Id value referred to IDVAR."
      def:Label="Identifying Variable Value"
      >
  </ItemDef>
  <ItemDef OID="RELREC.RELTYPE"
      Name="RELTYPE"
      DataType="text"
      Length="1"
      Origin="Assigned"
      Comment="Null for all records."
      def:Label="Relationship Type"
      >
  </ItemDef>
  <ItemDef OID="RELREC.RELID"
      Name="RELID"
      DataType="text"
      Length="5"
      Origin="Assigned"
      def:Label="Relationship Identifier"
      >
  </ItemDef>
  <ItemDef OID="SE.STUDYID"
      Name="STUDYID"
      DataType="text"
      Length="11"
      Origin="Protocol"
      Comment="Set to &apos;H9X-MC-GBCK&apos;."
      def:Label="Study Identifier"
      >
  </ItemDef>
  <ItemDef OID="SE.DOMAIN"
      Name="DOMAIN"
      DataType="text"
      Length="2"
      Origin="Assigned"
      Comment="Set to &apos;SE&apos;."
      def:Label="Domain Abbreviation"
      >
  </ItemDef>
  <ItemDef OID="SE.USUBJID"
      Name="USUBJID"
      DataType="text"
      Length="21"
      Origin="Derived"
      Comment="Concatenation of STUDYID, INVID and SUBJID."
      def:Label="Unique Subject Identifier"
      >
  </ItemDef>
  <ItemDef OID="SE.SESEQ"
      Name="SESEQ"
      DataType="integer"
      Length="8"
      Origin="Derived"
      Comment="Sequence number assigned to be unique within the domain and USUBJID and assigned according to record sequence as determined by designated key variables for the domain."
      def:Label="Sequence Number"
      >
  </ItemDef>
  <ItemDef OID="SE.ETCD"
      Name="ETCD"
      DataType="text"
      Length="7"
      Origin="Assigned"
      def:Label="Element Code"
      >
    <CodeListRef CodeListOID="ETCD_F"/>
  </ItemDef>
  <ItemDef OID="SE.ELEMENT"
      Name="ELEMENT"
      DataType="text"
      Length="21"
      Origin="Assigned"
      def:Label="Description of Element"
      >
  </ItemDef>
  <ItemDef OID="SE.SESTDTC"
      Name="SESTDTC"
      DataType="text"
      Length="10"
      Origin="Derived"
      Comment="Derived from SVSTDTC, based on element start rules as defined in TE domain."
      def:Label="Start Date/Time of Element"
      >
    <CodeListRef CodeListOID="ISO8601"/>
  </ItemDef>
  <ItemDef OID="SE.SEENDTC"
      Name="SEENDTC"
      DataType="text"
      Length="10"
      Origin="Derived"
      Comment="Equivalent to the Start Date of the next Element. If it is the subject&apos;s last Element, the SEENDTC will be equivalent the  subject&apos;s last visit date."
      def:Label="End Date/Time of Element"
      >
    <CodeListRef CodeListOID="ISO8601"/>
  </ItemDef>
  <ItemDef OID="SE.SESTDY"
      Name="SESTDY"
      DataType="integer"
      Length="8"
      Origin="Assigned"
      Comment="Calculated using RFSTDTC. If Date is on or after RFSTDTC, then Study Day = (Date - RFSTDTC) + 1. If Date is prior to RFSTDTC, then Study Day = (Date - RFSTDTC)."
      def:Label="Study Day of Start of Subject Element"
      >
  </ItemDef>
  <ItemDef OID="SE.SEENDY"
      Name="SEENDY"
      DataType="integer"
      Length="8"
      Origin="Assigned"
      Comment="Calculated using RFSTDTC. If Date is on or after RFSTDTC, then Study Day = (Date - RFSTDTC) + 1. If Date is prior to RFSTDTC, then Study Day = (Date - RFSTDTC)."
      def:Label="Study Day of End of Subject Element"
      >
  </ItemDef>
  <ItemDef OID="SE.TAETORD"
      Name="TAETORD"
      DataType="integer"
      Length="8"
      Origin="Derived"
      Comment="Derived based on ETCD as defined in TA."
      def:Label="Planned Order of Elements within Arm"
      >
  </ItemDef>
  <ItemDef OID="SE.EPOCH"
      Name="EPOCH"
      DataType="text"
      Length="27"
      Origin="Derived"
      Comment="Populated with the TA.EPOCH value corresponding to VISITNUM"
      def:Label="Epoch"
      >
    <CodeListRef CodeListOID="EPOCH_F"/>
  </ItemDef>
  <ItemDef OID="SE.SEUPDES"
      Name="SEUPDES"
      DataType="text"
      Length="1"
      Origin="Assigned"
      Comment="Null for all records."
      def:Label="Description of Unplanned Element"
      >
  </ItemDef>
  <ItemDef OID="SV.STUDYID"
      Name="STUDYID"
      DataType="text"
      Length="11"
      Origin="Protocol"
      Comment="Set to &apos;H9X-MC-GBCK&apos;."
      def:Label="Study Identifier"
      >
  </ItemDef>
  <ItemDef OID="SV.DOMAIN"
      Name="DOMAIN"
      DataType="text"
      Length="2"
      Origin="Assigned"
      Comment="Set to &apos;SV&apos;."
      def:Label="Domain Abbreviation"
      >
  </ItemDef>
  <ItemDef OID="SV.USUBJID"
      Name="USUBJID"
      DataType="text"
      Length="21"
      Origin="Derived"
      Comment="Concatenation of STUDYID, INVID and SUBJID."
      def:Label="Unique Subject Identifier"
      >
  </ItemDef>
  <ItemDef OID="SV.VISITNUM"
      Name="VISITNUM"
      DataType="integer"
      Length="8"
      Origin="Derived"
      Comment="Numeric equivalent of alphanumeric variable VISIT."
      def:Label="Visit Number"
      >
    <CodeListRef CodeListOID="VIS_F"/>
  </ItemDef>
  <ItemDef OID="SV.VISIT"
      Name="VISIT"
      DataType="text"
      Length="21"
      Origin="Derived"
      Comment="Populated with the value found in TV.VISIT."
      def:Label="Visit Name"
      >
    <CodeListRef CodeListOID="VISIT_F"/>
  </ItemDef>
  <ItemDef OID="SV.VISITDY"
      Name="VISITDY"
      DataType="integer"
      Length="8"
      Origin="Assigned"
      def:Label="Planned Study Day of Visit"
      >
  </ItemDef>
  <ItemDef OID="SV.EPOCH"
      Name="EPOCH"
      DataType="text"
      Length="27"
      Origin="Derived"
      Comment="Populated with the TA.EPOCH value corresponding to VISITNUM"
      def:Label="Epoch"
      >
    <CodeListRef CodeListOID="EPOCH_F"/>
  </ItemDef>
  <ItemDef OID="SV.SVSTDTC"
      Name="SVSTDTC"
      DataType="text"
      Length="10"
      Origin="Derived"
      Comment="At Visit1 SESTET is set equal to the value found in DS.DSSDTC for the same visit. For records after Visit 1, SESTET is set equal to the value in SVENDTC of the prior visit + 1 day."
      def:Label="Start Date/Time of Visit"
      >
    <CodeListRef CodeListOID="ISO8601"/>
  </ItemDef>
  <ItemDef OID="SV.SVENDTC"
      Name="SVENDTC"
      DataType="text"
      Length="10"
      Origin="CRF Page 6"
      def:Label="End Date/Time of Visit"
      >
    <CodeListRef CodeListOID="ISO8601"/>
  </ItemDef>
  <ItemDef OID="SV.SVSTDY"
      Name="SVSTDY"
      DataType="integer"
      Length="8"
      Origin="Derived"
      Comment="Calculated using RFSTDTC. If Date is on or after RFSTDTC, then Study Day = (Date - RFSTDTC) + 1. If Date is prior to RFSTDTC, then Study Day = (Date - RFSTDTC)."
      def:Label="Study Day of Start of Visit"
      >
  </ItemDef>
  <ItemDef OID="SV.SVENDY"
      Name="SVENDY"
      DataType="integer"
      Length="8"
      Origin="Derived"
      Comment="Calculated using RFSTDTC. If Date is on or after RFSTDTC, then Study Day = (Date - RFSTDTC) + 1. If Date is prior to RFSTDTC, then Study Day = (Date - RFSTDTC)."
      def:Label="Study Day of End of Visit"
      >
  </ItemDef>
  <ItemDef OID="SV.SVUPDES"
      Name="SVUPDES"
      DataType="text"
      Length="1"
      Origin="Assigned"
      Comment="Null for all records."
      def:Label="Description of Unplanned Visit"
      >
  </ItemDef>
  <ItemDef OID="CM.STUDYID"
      Name="STUDYID"
      DataType="text"
      Length="11"
      Origin="Protocol"
      Comment="Set to &apos;H9X-MC-GBCK&apos;."
      def:Label="Study Identifier"
      >
  </ItemDef>
  <ItemDef OID="CM.DOMAIN"
      Name="DOMAIN"
      DataType="text"
      Length="2"
      Origin="Assigned"
      Comment="Set to &apos;CM&apos;."
      def:Label="Domain Abbreviation"
      >
  </ItemDef>
  <ItemDef OID="CM.USUBJID"
      Name="USUBJID"
      DataType="text"
      Length="21"
      Origin="Derived"
      Comment="Concatenation of STUDYID, INVID and SUBJID."
      def:Label="Unique Subject Identifier"
      >
  </ItemDef>
  <ItemDef OID="CM.CMSEQ"
      Name="CMSEQ"
      DataType="integer"
      Length="8"
      Origin="Derived"
      Comment="Sequence number assigned to be unique within the domain and USUBJID and assigned according to record sequence as determined by designated key variables for the domain."
      def:Label="Sequence Number"
      >
  </ItemDef>
  <ItemDef OID="CM.CMGRPID"
      Name="CMGRPID"
      DataType="text"
      Length="1"
      Origin="Assigned"
      Comment="Null for all records."
      def:Label="Group ID"
      >
  </ItemDef>
  <ItemDef OID="CM.CMSPID"
      Name="CMSPID"
      DataType="text"
      Length="2"
      Origin="CRF Pages 14, 20, 21, 22"
      def:Label="Sponsor-Defined Identifier"
      >
  </ItemDef>
  <ItemDef OID="CM.CMTRT"
      Name="CMTRT"
      DataType="text"
      Length="53"
      Origin="CRF Pages 14, 20, 21, 22"
      def:Label="Reported Name of Drug, Med, or Therapy"
      >
  </ItemDef>
  <ItemDef OID="CM.CMMODIFY"
      Name="CMMODIFY"
      DataType="text"
      Length="1"
      Origin="Assigned"
      Comment="Null for all records."
      def:Label="Modified Reported Name"
      >
  </ItemDef>
  <ItemDef OID="CM.CMDECOD"
      Name="CMDECOD"
      DataType="text"
      Length="45"
      Origin="Assigned"
      Comment="Coded values are from the Who Drug Dictionary that was current when the data was collected. Versions: 01Jun2008, 01Dec2008, 01Jun2009, 01Dec2009, 01Jun2010, 01Dec2010."
      def:Label="Standardized Medication Name"
      >
    <CodeListRef CodeListOID="CMDICT_F"/>
  </ItemDef>
  <ItemDef OID="CM.CMCAT"
      Name="CMCAT"
      DataType="text"
      Length="19"
      Origin="Assigned"
      Comment="Populated based on the value found in treatment type."
      def:Label="Category for Medication"
      >
    <CodeListRef CodeListOID="CMCAT_F"/>
  </ItemDef>
  <ItemDef OID="CM.CMSCAT"
      Name="CMSCAT"
      DataType="text"
      Length="31"
      Origin="Assigned"
      def:Label="Subcategory for Medication"
      >
    <CodeListRef CodeListOID="CMSCAT_F"/>
  </ItemDef>
  <ItemDef OID="CM.CMPRESP"
      Name="CMPRESP"
      DataType="text"
      Length="1"
      Origin="Assigned"
      Comment="Null for all records."
      def:Label="CM Pre-Specified"
      >
    <CodeListRef CodeListOID="Y_F"/>
  </ItemDef>
  <ItemDef OID="CM.CMOCCUR"
      Name="CMOCCUR"
      DataType="text"
      Length="1"
      Origin="Assigned"
      Comment="Null for all records."
      def:Label="CM Occurrence"
      >
    <CodeListRef CodeListOID="YN_F"/>
  </ItemDef>
  <ItemDef OID="CM.CMSTAT"
      Name="CMSTAT"
      DataType="text"
      Length="1"
      Origin="Assigned"
      Comment="Null for all records."
      def:Label="Completion Status"
      >
  </ItemDef>
  <ItemDef OID="CM.CMREASND"
      Name="CMREASND"
      DataType="text"
      Length="1"
      Origin="Assigned"
      Comment="Null for all records."
      def:Label="Reason Medication Not Collected"
      >
  </ItemDef>
  <ItemDef OID="CM.CMINDC"
      Name="CMINDC"
      DataType="text"
      Length="1"
      Origin="Assigned"
      Comment="Null for all records."
      def:Label="Indication"
      >
  </ItemDef>
  <ItemDef OID="CM.CMCLAS"
      Name="CMCLAS"
      DataType="text"
      Length="1"
      Origin="Assigned"
      Comment="Null for all records."
      def:Label="Medication Class"
      >
  </ItemDef>
  <ItemDef OID="CM.CMCLASCD"
      Name="CMCLASCD"
      DataType="text"
      Length="1"
      Origin="Assigned"
      Comment="Null for all records."
      def:Label="Medication Class Code"
      >
  </ItemDef>
  <ItemDef OID="CM.CMDOSE"
      Name="CMDOSE"
      DataType="integer"
      Length="8"
      Origin="Assigned"
      Comment="Null for all records."
      def:Label="Dose per Administration"
      >
  </ItemDef>
  <ItemDef OID="CM.CMDOSTXT"
      Name="CMDOSTXT"
      DataType="text"
      Length="1"
      Origin="Assigned"
      Comment="Null for all records."
      def:Label="Dose Description"
      >
  </ItemDef>
  <ItemDef OID="CM.CMDOSU"
      Name="CMDOSU"
      DataType="text"
      Length="2"
      Origin="CRF Page 21"
      def:Label="Dose Units"
      >
    <CodeListRef CodeListOID="CMDOSU_F"/>
  </ItemDef>
  <ItemDef OID="CM.CMDOSFRM"
      Name="CMDOSFRM"
      DataType="text"
      Length="1"
      Origin="Assigned"
      Comment="Null for all records."
      def:Label="Dose Form"
      >
  </ItemDef>
  <ItemDef OID="CM.CMDOSFRQ"
      Name="CMDOSFRQ"
      DataType="text"
      Length="1"
      Origin="Assigned"
      Comment="Null for all records."
      def:Label="Dosing Frequency per Interval"
      >
  </ItemDef>
  <ItemDef OID="CM.CMDOSTOT"
      Name="CMDOSTOT"
      DataType="integer"
      Length="8"
      Origin="CRF Page 21"
      def:Label="Total Daily Dose"
      >
  </ItemDef>
  <ItemDef OID="CM.CMDOSRGM"
      Name="CMDOSRGM"
      DataType="text"
      Length="1"
      Origin="Assigned"
      Comment="Null for all records."
      def:Label="Intended Dose Regimen"
      >
  </ItemDef>
  <ItemDef OID="CM.CMROUTE"
      Name="CMROUTE"
      DataType="text"
      Length="1"
      Origin="Assigned"
      Comment="Null for all records."
      def:Label="Route of Administration"
      >
  </ItemDef>
  <ItemDef OID="CM.CMLOC"
      Name="CMLOC"
      DataType="text"
      Length="1"
      Origin="Assigned"
      Comment="Null for all records."
      def:Label="Location of Dose Administration"
      >
  </ItemDef>
  <ItemDef OID="CM.CMVAMT"
      Name="CMVAMT"
      DataType="integer"
      Length="8"
      Origin="Assigned"
      Comment="Null for all records."
      def:Label="Treatment Vehicle Amount"
      >
  </ItemDef>
  <ItemDef OID="CM.CMVAMTU"
      Name="CMVAMTU"
      DataType="text"
      Length="1"
      Origin="Assigned"
      Comment="Null for all records."
      def:Label="Treatment Vehicle Amount Units"
      >
  </ItemDef>
  <ItemDef OID="CM.VISITNUM"
      Name="VISITNUM"
      DataType="integer"
      Length="8"
      Origin="Derived"
      Comment="Numeric equivalent of alphanumeric variable VISIT."
      def:Label="Visit Number"
      >
    <CodeListRef CodeListOID="VIS_F"/>
  </ItemDef>
  <ItemDef OID="CM.VISIT"
      Name="VISIT"
      DataType="text"
      Length="21"
      Origin="Derived"
      Comment="CMSTDTC must be &gt;or = to the SESTET, but &lt; the next SESTET. If CMSTDTC &lt; SESTET where VISIT = VISIT1, then VISIT = VISIT1.If CMSTDTC &gt; last SVENDTC, then VISIT = VISIT of the last SVENDTC."
      def:Label="Visit Name"
      >
  </ItemDef>
  <ItemDef OID="CM.EPOCH"
      Name="EPOCH"
      DataType="text"
      Length="27"
      Origin="Derived"
      Comment="Populated with the TA.EPOCH value corresponding to VISITNUM"
      def:Label="Epoch"
      >
    <CodeListRef CodeListOID="EPOCH_F"/>
  </ItemDef>
  <ItemDef OID="CM.CMSTDTC"
      Name="CMSTDTC"
      DataType="text"
      Length="10"
      Origin="CRF Pages 14, 20, 21, 22"
      def:Label="Start Date/Time of Medication"
      >
    <CodeListRef CodeListOID="ISO8601"/>
  </ItemDef>
  <ItemDef OID="CM.CMENDTC"
      Name="CMENDTC"
      DataType="text"
      Length="10"
      Origin="CRF Pages 14, 20, 21, 22"
      def:Label="End Date/Time of Medication"
      >
    <CodeListRef CodeListOID="ISO8601"/>
  </ItemDef>
  <ItemDef OID="CM.CMSTDY"
      Name="CMSTDY"
      DataType="integer"
      Length="8"
      Origin="Derived"
      Comment="Calculated using RFSTDTC. If Date is on or after RFSTDTC, then Study Day = (Date - RFSTDTC) + 1. If Date is prior to RFSTDTC, then Study Day = (Date - RFSTDTC)."
      def:Label="Study Day of Start of Medication"
      >
  </ItemDef>
  <ItemDef OID="CM.CMENDY"
      Name="CMENDY"
      DataType="integer"
      Length="8"
      Origin="Derived"
      Comment="Calculated using RFSTDTC. If Date is on or after RFSTDTC, then Study Day = (Date - RFSTDTC) + 1. If Date is prior to RFSTDTC, then Study Day = (Date - RFSTDTC)."
      def:Label="Study Day of End of Medication"
      >
  </ItemDef>
  <ItemDef OID="CM.CMDUR"
      Name="CMDUR"
      DataType="text"
      Length="1"
      Origin="Assigned"
      Comment="Null for all records."
      def:Label="Duration of Medication"
      >
    <CodeListRef CodeListOID="ISO8601"/>
  </ItemDef>
  <ItemDef OID="CM.CMSTRF"
      Name="CMSTRF"
      DataType="text"
      Length="1"
      Origin="Assigned"
      Comment="Null for all records."
      def:Label="Start Relative to Reference Period"
      >
  </ItemDef>
  <ItemDef OID="CM.CMENRF"
      Name="CMENRF"
      DataType="text"
      Length="5"
      Origin="CRF Pages 20, 21, 22"
      def:Label="End Relative to Reference Period"
      >
    <CodeListRef CodeListOID="ENRF_F"/>
  </ItemDef>
  <ItemDef OID="CM.CMSTRTPT"
      Name="CMSTRTPT"
      DataType="text"
      Length="6"
      Origin="Derived"
      Comment="If the CMSTDTC is before the informed consent date (DM_RFICDTC) (or null or partial), set to &apos;BEFORE&apos;.  Otherwise, set to &apos;AFTER&apos;."
      def:Label="Start Relative to Reference Time Point"
      >
  </ItemDef>
  <ItemDef OID="CM.CMSTTPT"
      Name="CMSTTPT"
      DataType="text"
      Length="10"
      Origin="Assigned"
      Comment="If CMSTRTPT is populated, set to INFORMED CONSENT DATE.  Otherwise, set to null."
      def:Label="Start Reference Time Point"
      >
  </ItemDef>
  <ItemDef OID="CM.CMEVLINT"
      Name="CMEVLINT"
      DataType="text"
      Length="1"
      Origin="Assigned"
      Comment="Null for all records."
      def:Label="Evaluation Interval"
      >
    <CodeListRef CodeListOID="ISO8601"/>
  </ItemDef>
  <ItemDef OID="EX.STUDYID"
      Name="STUDYID"
      DataType="text"
      Length="11"
      Origin="Protocol"
      Comment="Set to &apos;H9X-MC-GBCK&apos;."
      def:Label="Study Identifier"
      >
  </ItemDef>
  <ItemDef OID="EX.DOMAIN"
      Name="DOMAIN"
      DataType="text"
      Length="2"
      Origin="Assigned"
      Comment="Set to &apos;EX&apos;."
      def:Label="Domain Abbreviation"
      >
  </ItemDef>
  <ItemDef OID="EX.USUBJID"
      Name="USUBJID"
      DataType="text"
      Length="21"
      Origin="Derived"
      Comment="Concatenation of STUDYID, INVID and SUBJID."
      def:Label="Unique Subject Identifier"
      >
  </ItemDef>
  <ItemDef OID="EX.EXSEQ"
      Name="EXSEQ"
      DataType="integer"
      Length="8"
      Origin="Derived"
      Comment="Sequence number assigned to be unique within the domain and USUBJID and assigned according to record sequence as determined by designated key variables for the domain."
      def:Label="Sequence Number"
      >
  </ItemDef>
  <ItemDef OID="EX.EXGRPID"
      Name="EXGRPID"
      DataType="text"
      Length="1"
      Origin="Assigned"
      Comment="Null for all records."
      def:Label="Group ID"
      >
  </ItemDef>
  <ItemDef OID="EX.EXREFID"
      Name="EXREFID"
      DataType="text"
      Length="1"
      Origin="eDT"
      Comment="Null for all records."
      def:Label="Reference ID"
      >
  </ItemDef>
  <ItemDef OID="EX.EXSPID"
      Name="EXSPID"
      DataType="text"
      Length="1"
      Origin="Assigned"
      Comment="Null for all records."
      def:Label="Sponsor-Defined Identifier"
      >
  </ItemDef>
  <ItemDef OID="EX.EXTRT"
      Name="EXTRT"
      DataType="text"
      Length="9"
      Origin="Derived"
      Comment="If DM_ARMCD = &apos;A-1&apos;, set to &apos;PLACEBO&apos;, If DM_ARMCD = &apos;A-2&apos;, &apos;A-3&apos;, &apos;A-4&apos;, &apos;A-5&apos;, or &apos;A-6&apos;, set to &apos;LY2189265&apos;."
      def:Label="Name of Actual Treatment"
      >
    <CodeListRef CodeListOID="EXTRT_F"/>
  </ItemDef>
  <ItemDef OID="EX.EXCAT"
      Name="EXCAT"
      DataType="text"
      Length="15"
      Origin="Assigned"
      def:Label="Category for Treatment"
      >
    <CodeListRef CodeListOID="EXCAT_F"/>
  </ItemDef>
  <ItemDef OID="EX.EXSCAT"
      Name="EXSCAT"
      DataType="text"
      Length="1"
      Origin="Assigned"
      Comment="Null for all records."
      def:Label="Subcategory for Treatment"
      >
  </ItemDef>
  <ItemDef OID="EX.EXSTAT"
      Name="EXSTAT"
      DataType="text"
      Length="1"
      Origin="Assigned"
      Comment="Null for all records."
      def:Label="Completion Status"
      >
    <CodeListRef CodeListOID="NOTDONE_F"/>
  </ItemDef>
  <ItemDef OID="EX.EXREASND"
      Name="EXREASND"
      DataType="text"
      Length="1"
      Origin="Assigned"
      Comment="Null for all records."
      def:Label="Reason Not Done"
      >
  </ItemDef>
  <ItemDef OID="EX.EXDOSE"
      Name="EXDOSE"
      DataType="float"
      Length="8"
      SignificantDigits="1"
      Origin="eDT"
      Comment="Provided electronically by the site personnel."
      def:Label="Dose per Administration"
      >
  </ItemDef>
  <ItemDef OID="EX.EXDOSTXT"
      Name="EXDOSTXT"
      DataType="text"
      Length="1"
      Origin="Assigned"
      Comment="Null for all records."
      def:Label="Dose Description"
      >
  </ItemDef>
  <ItemDef OID="EX.EXDOSU"
      Name="EXDOSU"
      DataType="text"
      Length="2"
      Origin="Protocol"
      Comment="Set to &apos;mg&apos;."
      def:Label="Dose Units"
      >
    <CodeListRef CodeListOID="EXDOSU_F"/>
  </ItemDef>
  <ItemDef OID="EX.EXDOSFRM"
      Name="EXDOSFRM"
      DataType="text"
      Length="8"
      Origin="Protocol"
      Comment="Set to &apos;SOLUTION&apos;."
      def:Label="Dose Form"
      >
    <CodeListRef CodeListOID="EXDOSFRM_F"/>
  </ItemDef>
  <ItemDef OID="EX.EXDOSFRQ"
      Name="EXDOSFRQ"
      DataType="text"
      Length="4"
      Origin="Protocol"
      def:Label="Dosing Frequency per Interval"
      >
    <CodeListRef CodeListOID="EXDOSFRQ_F"/>
  </ItemDef>
  <ItemDef OID="EX.EXDOSTOT"
      Name="EXDOSTOT"
      DataType="integer"
      Length="8"
      Origin="Assigned"
      Comment="Null for all records."
      def:Label="Total Daily Dose"
      >
  </ItemDef>
  <ItemDef OID="EX.EXDOSRGM"
      Name="EXDOSRGM"
      DataType="text"
      Length="1"
      Origin="Assigned"
      Comment="Null for all records."
      def:Label="Intended Dose Regimen"
      >
  </ItemDef>
  <ItemDef OID="EX.EXROUTE"
      Name="EXROUTE"
      DataType="text"
      Length="12"
      Origin="Protocol"
      Comment="Set to &apos;SUBCUTANEOUS&apos;."
      def:Label="Route of Administration"
      >
    <CodeListRef CodeListOID="EXROUTE_F"/>
  </ItemDef>
  <ItemDef OID="EX.EXLOT"
      Name="EXLOT"
      DataType="text"
      Length="1"
      Origin="Assigned"
      Comment="Null for all records."
      def:Label="Lot Number"
      >
  </ItemDef>
  <ItemDef OID="EX.EXLOC"
      Name="EXLOC"
      DataType="text"
      Length="1"
      Origin="Assigned"
      Comment="Null for all records."
      def:Label="Location of Dose Administration"
      >
  </ItemDef>
  <ItemDef OID="EX.EXTRTV"
      Name="EXTRTV"
      DataType="text"
      Length="1"
      Origin="Protocol"
      Comment="Null for all records."
      def:Label="Treatment Vehicle"
      >
  </ItemDef>
  <ItemDef OID="EX.EXVAMT"
      Name="EXVAMT"
      DataType="integer"
      Length="8"
      Origin="Assigned"
      Comment="Null for all records."
      def:Label="Treatment Vehicle Amount"
      >
  </ItemDef>
  <ItemDef OID="EX.EXVAMTU"
      Name="EXVAMTU"
      DataType="text"
      Length="1"
      Origin="Assigned"
      Comment="Null for all records."
      def:Label="Treatment Vehicle Amount Units"
      >
  </ItemDef>
  <ItemDef OID="EX.EXADJ"
      Name="EXADJ"
      DataType="text"
      Length="1"
      Origin="Assigned"
      Comment="Null for all records."
      def:Label="Reason for Dose Adjustment"
      >
  </ItemDef>
  <ItemDef OID="EX.VISITNUM"
      Name="VISITNUM"
      DataType="integer"
      Length="8"
      Origin="Derived"
      Comment="Numeric equivalent of alphanumeric variable VISIT."
      def:Label="Visit Number"
      >
    <CodeListRef CodeListOID="VIS_F"/>
  </ItemDef>
  <ItemDef OID="EX.VISIT"
      Name="VISIT"
      DataType="text"
      Length="21"
      Origin="Derived"
      Comment="Populated with the value found in SV.VISIT."
      def:Label="Visit Name"
      >
  </ItemDef>
  <ItemDef OID="EX.TAETORD"
      Name="TAETORD"
      DataType="integer"
      Length="8"
      Origin="Derived"
      Comment="Matches the value in SE for the given element."
      def:Label="Order of Element within Arm"
      >
  </ItemDef>
  <ItemDef OID="EX.EPOCH"
      Name="EPOCH"
      DataType="text"
      Length="27"
      Origin="Derived"
      Comment="Populated with the TA.EPOCH value corresponding to VISITNUM"
      def:Label="Epoch"
      >
  </ItemDef>
  <ItemDef OID="EX.EXSTDTC"
      Name="EXSTDTC"
      DataType="text"
      Length="16"
      Origin="CRF Pages 39, 42"
      def:Label="Start Date/Time of Treatment"
      >
    <CodeListRef CodeListOID="ISO8601"/>
  </ItemDef>
  <ItemDef OID="EX.EXENDTC"
      Name="EXENDTC"
      DataType="text"
      Length="10"
      Origin="CRF Page 43"
      def:Label="End Date/Time of Treatment"
      >
    <CodeListRef CodeListOID="ISO8601"/>
  </ItemDef>
  <ItemDef OID="EX.EXSTDY"
      Name="EXSTDY"
      DataType="integer"
      Length="8"
      Origin="Derived"
      Comment="Calculated using RFSTDTC. If Date is on or after RFSTDTC, then Study Day = (Date - RFSTDTC) + 1. If Date is prior to RFSTDTC, then Study Day = (Date - RFSTDTC)."
      def:Label="Study Day of Start of Treatment"
      >
  </ItemDef>
  <ItemDef OID="EX.EXENDY"
      Name="EXENDY"
      DataType="integer"
      Length="8"
      Origin="Derived"
      Comment="Calculated using RFSTDTC. If Date is on or after RFSTDTC, then Study Day = (Date - RFSTDTC) + 1. If Date is prior to RFSTDTC, then Study Day = (Date - RFSTDTC)."
      def:Label="Study Day of End of Treatment"
      >
  </ItemDef>
  <ItemDef OID="EX.EXDUR"
      Name="EXDUR"
      DataType="text"
      Length="1"
      Origin="Assigned"
      Comment="Null for all records."
      def:Label="Duration of Treatment"
      >
    <CodeListRef CodeListOID="ISO8601"/>
  </ItemDef>
  <ItemDef OID="EX.EXTPT"
      Name="EXTPT"
      DataType="text"
      Length="1"
      Origin="Assigned"
      Comment="Null for all records."
      def:Label="Planned Time Point Name"
      >
  </ItemDef>
  <ItemDef OID="EX.EXTPTNUM"
      Name="EXTPTNUM"
      DataType="integer"
      Length="8"
      Origin="Assigned"
      Comment="Null for all records."
      def:Label="Planned Time Point Number"
      >
  </ItemDef>
  <ItemDef OID="EX.EXELTM"
      Name="EXELTM"
      DataType="text"
      Length="1"
      Origin="Assigned"
      Comment="Null for all records."
      def:Label="Planned Elapsed Time from Time Point Ref"
      >
  </ItemDef>
  <ItemDef OID="EX.EXTPTREF"
      Name="EXTPTREF"
      DataType="text"
      Length="1"
      Origin="Assigned"
      Comment="Null for all records."
      def:Label="Time Point Reference"
      >
  </ItemDef>
  <ItemDef OID="EX.EXRFTDTC"
      Name="EXRFTDTC"
      DataType="text"
      Length="1"
      Origin="Derived"
      Comment="Null for all records."
      def:Label="Date/Time of Reference Time Point"
      >
    <CodeListRef CodeListOID="ISO8601"/>
  </ItemDef>
  <ItemDef OID="SU.STUDYID"
      Name="STUDYID"
      DataType="text"
      Length="11"
      Origin="Protocol"
      Comment="Set to &apos;H9X-MC-GBCK&apos;."
      def:Label="Study Identifier"
      >
  </ItemDef>
  <ItemDef OID="SU.DOMAIN"
      Name="DOMAIN"
      DataType="text"
      Length="2"
      Origin="Assigned"
      Comment="Set to &apos;SU&apos;."
      def:Label="Domain Abbreviation"
      >
  </ItemDef>
  <ItemDef OID="SU.USUBJID"
      Name="USUBJID"
      DataType="text"
      Length="21"
      Origin="Derived"
      Comment="Concatenation of STUDYID, INVID and SUBJID."
      def:Label="Unique Subject Identifier"
      >
  </ItemDef>
  <ItemDef OID="SU.SUSEQ"
      Name="SUSEQ"
      DataType="integer"
      Length="8"
      Origin="Derived"
      Comment="Sequence number assigned to be unique within the domain and USUBJID and assigned according to record sequence as determined by designated key variables for the domain."
      def:Label="Sequence Number"
      >
  </ItemDef>
  <ItemDef OID="SU.SUGRPID"
      Name="SUGRPID"
      DataType="text"
      Length="1"
      Origin="Assigned"
      Comment="Null for all records."
      def:Label="Group ID"
      >
  </ItemDef>
